lsm6dso_accelerometer.x,lsm6dso_accelerometer.y,lsm6dso_accelerometer.z,ak09918_magnetometer.x,ak09918_magnetometer.y,ak09918_magnetometer.z,orientation.x,orientation.y,orientation.z,lsm6dso_gyroscope.x,lsm6dso_gyroscope.y,lsm6dso_gyroscope.z,tmd4912_light_cct.x,tmd4912_light_cct.y,tmd4912_light_cct.z
0,0,0,0,0,0,0,0,0,0,0,0,0,0,0
0.375,4.531,8.368,-35.82,-23.58,-18.42,107.96875,-28.65625,1.984375,0.015384,0.122354,0.107333,70,0,0
0.052,4.665,8.794,-36.3,-22.98,-18.06,107.546875,-27.890623,0.21875,0.034941,0.06146,0.088839,70,0,0
0.524,4.401,8.705,-38.16,-21.18,-17.22,107.28125,-26.625,2.765625,-0.007758,0.048772,0.060079,70,0,0
1,4.234,8.435,-38.46,-20.039999,-17.16,104.890625,-26.25,5.6875,-0.030875,0.006652,0.114893,71,0,0
0.701,4.251,8.878,-38.16,-20.58,-18,105.81249,-25.640623,3.96875,-0.091442,-0.162717,0.198908,71,0,0
0.179,4.641,8.923,-38.94,-19.5,-18.24,103.34375,-27.53125,0.875,-0.076472,-0.043485,0.122894,71,0,0
0.653,4.586,8.7,-38.46,-20.4,-18.359999,102.984375,-27.734377,3.328125,0.045323,0.166322,0.135135,71,0,0
0.701,4.435,8.729,-38.82,-20.279999,-17.82,103.984375,-26.984377,4.390625,0.072515,0.067159,0.099156,72,0,0
-0.265,3.3,8.466,-38.52,-20.58,-17.58,103.859375,-23.6875,-1.765625,0.045319,-0.053276,0.022058,72,0,0
0.888,4.605,8.657,-38.399998,-19.859999,-17.699999,104.03125,-27.828123,3.890625,0.0209,0.039727,-0.014461,72,0,0
0.299,4.361,8.411,-38.1,-20.16,-17.58,103.68751,-31.4375,8.03125,-0.083721,0.012588,-0.032749,72,0,0
0.617,4.289,8.585,-38.579998,-18.6,-17.46,102.546875,-22.65625,-2.65625,0.008853,0.017781,0.054065,72,0,0
0.497,4.181,8.655,-37.98,-18.6,-17.46,102.359375,-26.0625,3.671875,-0.035729,0.090445,0.054313,72,0,0
0.706,4.375,8.617,-38.219997,-19.439999,-17.76,103.421875,-26.6875,4.09375,-0.040489,0.015116,0.016054,72,0,0
0.56,4.38,8.827,-38.34,-19.439999,-18.96,102.75,-26.4375,3.421875,-0.011581,-0.036315,0.022139,72,0,0
0.629,4.284,8.775,-38.16,-20.82,-19.56,103.125,-25.96875,3.359375,-0.016868,0.004171,0.026616,72,0,0
0.598,4.167,9.016,-38.76,-17.82,-18.779999,102.68751,-24.859377,3.53125,-0.069742,-0.009756,-0.027722,72,0,0
0.502,4.222,8.851,-38.52,-17.94,-19.14,102.015625,-25.875,2.875,-0.078608,0.016156,0.015477,72,0,0
0.641,4.15,8.889,-38.46,-19.02,-19.8,102.328125,-25.015623,3.5625,-0.041984,0.051498,0.059275,72,0,0
0.593,4.174,8.889,-38.94,-17.279999,-19.56,101.078125,-24.984377,3.578125,-0.032088,0.030006,0.048242,72,0,0
0.667,4.205,8.837,-38.94,-16.44,-19.5,99.56249,-25.578123,3.84375,-0.015398,0.051303,0.1014,72,0,0
0.6,4.205,8.988,-39.18,-16.44,-19.98,99.375,-24.859377,3.46875,0.003751,0.066711,0.136572,72,0,0
0.406,4.215,8.767,-39.18,-17.22,-19.619999,100.296875,-25.9375,3,0.00351,0.049873,0.071994,72,0,0
0.646,4.303,9.079,-39.059998,-16.92,-18.779999,99.515625,-25.765623,3.5625,0.032079,0.037296,0.00462,72,0,0
0.653,4.361,8.183,-39.18,-16.92,-19.08,99.546875,-27.328123,4.5625,0.016096,0.031053,4.58E-04,72,0,0
0.679,4.236,8.772,-38.7,-17.94,-18.66,100.765625,-25.953123,3.53125,0.019533,-0.016475,0.014871,72,0,0
0.715,4.243,8.916,-38.76,-17.52,-18,101.671875,-25.609377,4.34375,0.022958,-0.083621,-0.049139,72,0,0
0.627,4.32,8.657,-38.7,-17.46,-17.88,101.296875,-26.59375,3.390625,-0.013483,-0.058518,-0.061706,72,0,0
0.641,4.219,8.777,-39.059998,-17.699999,-18.6,101.140625,-25.640623,3.84375,-0.009465,-0.050199,-0.050442,72,0,0
0.502,4.318,8.844,-39.059998,-17.34,-18.72,100.5,-25.921877,2.859375,0.007812,0.02762,0.019847,72,0,0
0.569,4.27,8.708,-38.28,-16.44,-18.66,99.921875,-25.875,3.28125,0.001207,0.047683,0.043569,72,0,0
0.45,4.258,8.887,-38.82,-17.1,-18.9,99.84375,-25.578123,2.546875,0.004128,0.047957,0.061787,72,0,0
0.473,4.33,8.904,-38.46,-17.4,-19.02,100.53125,-25.484377,2.765625,-8.51E-04,0.026153,0.010569,72,0,0
0.505,4.222,8.71,-38.46,-17.64,-19.199999,100.28125,-25.765623,3.140625,-0.003441,0.014273,-0.025635,72,0,0
0.624,4.251,8.851,-39,-17.4,-18.66,100.546875,-25.921877,4,0.004658,0.007293,-0.014145,72,0,0
0.323,3.987,8.875,-38.879997,-16.8,-18.9,99.953125,-25.78125,3.5,0.002997,-0.015555,-0.016765,72,0,0
1.756,5.747,8.901,-39.66,-17.039999,-19.38,98.09375,-32.296875,9.75,-0.031003,0.022092,0.019651,71,0,0
-0.397,3.157,8.796,-39.48,-16.619999,-18.779999,100.65625,-22.625,-0.640625,-0.023604,0.012025,0.031415,71,0,0
1.127,4.77,9.019,-39.12,-16.14,-18.9,99.46875,-22.171877,1.0625,-0.224298,0.110777,-0.116916,71,0,0
0.684,4.193,8.755,-39.6,-16.74,-18.779999,99.125,-25.421877,4.390625,-0.047324,0.011286,0.019428,71,0,0
0.505,3.983,9.009,-39.48,-16.619999,-19.02,99.578125,-23.9375,3.53125,0.112789,-0.081778,0.110043,70,0,0
0.981,4.957,9.028,-39.18,-16.26,-19.38,97.43751,-31.078123,7.78125,0.219571,-0.137654,0.193519,70,0,0
0.134,3.166,8.763,-38.7,-15.54,-19.56,96.515625,-30.640623,9.578125,0.183705,-0.052299,0.196424,70,0,0
0.902,4.476,8.889,-38.82,-15.839999,-19.199999,98.328125,-22.875,1.9375,0.070339,-0.002809,0.108921,70,0,0
0.684,4.145,8.901,-39.36,-16.14,-19.38,98.734375,-24.859377,3.890625,-0.027124,-0.001303,0.009908,70,0,0
0.653,4.349,8.964,-39.12,-16.56,-18.66,99.65625,-23.390623,2.265625,-0.117245,0.011621,-0.104843,70,0,0
1.778,5.311,9.016,-39.18,-16.02,-18.66,99.984375,-27.734377,8.0625,-0.185013,0.109216,-0.203452,68,0,0
0.512,3.64,8.856,-39.719997,-16.859999,-18.9,98.34375,-30.125,9.078125,-0.079892,0.016752,-0.085937,68,0,0
1.187,5.139,8.997,-39.66,-16.02,-18.42,100.046875,-25.359377,2.015625,0.044086,-0.051339,0.029448,68,0,0
0.057,3.695,8.621,-39.899998,-15.96,-19.08,98.34375,-18.859377,-0.59375,0.0042,0.021615,0.020332,68,0,0
1.366,5.333,9.071,-39.719997,-15.839999,-19.199999,99.84375,-26.46875,7.125,-0.020018,0.028931,0.029538,68,0,0
0.344,3.822,8.839,-39.78,-15.299999,-18.9,98.328125,-24.359377,3.71875,-0.028345,0.02576,0.01374,68,0,0
0.756,4.119,8.787,-40.02,-15.599999,-18.6,98.234375,-25.015623,4.390625,-0.043693,0.023545,0.005984,68,0,0
0.888,4.167,8.87,-39.78,-15,-18.779999,97.875,-25.09375,5.09375,-5.96E-04,0.001586,0.024898,66,0,0
0.706,4.15,8.82,-40.079998,-14.639999,-18.96,96.921875,-25.203123,4.34375,0.023615,-0.037468,0.096609,66,0,0
0.691,4.186,8.868,-40.2,-15.12,-18.66,97.515625,-24.859377,3.96875,0.016069,-0.007536,0.069419,66,0,0
0.78,4.181,8.822,-39.78,-14.7,-18.6,97.03125,-25.203123,4.484375,0.015175,0.024189,0.0228,65,0,0
0.797,4.169,8.794,-39.78,-14.82,-18.96,96.625,-25.078123,4.5625,0.027162,0.014925,0.032192,65,0,0
0.727,4.219,8.822,-39.899998,-15.24,-18.6,97.18751,-25.484377,4.3125,0.026353,0.006973,0.034338,65,0,0
0.797,4.32,8.878,-40.8,-15.24,-18.72,97.34375,-26.203123,4.59375,0.020342,0.00317,-0.01469,65,0,0
0.878,4.184,8.866,-40.379997,-15.54,-18.96,97.390625,-25.296877,4.984375,0.020107,-0.00409,-0.012877,65,0,0
0.885,4.148,8.643,-39.96,-15.299999,-18.72,97.53125,-25.484377,5.09375,0.006729,-0.034698,-4.90E-04,65,0,0
0.792,4.119,8.844,-40.379997,-15.24,-18.48,97.828125,-24.46875,4.796875,-0.015402,-0.038729,-0.014141,65,0,0
0.847,3.987,8.739,-40.8,-14.82,-18.66,97.78125,-24.671877,4.984375,-0.030692,-0.020675,-0.019002,62,0,0
0.967,3.904,8.633,-40.5,-15.059999,-18.779999,97.640625,-24.15625,5.828125,-0.042048,-0.01645,-1.71E-04,62,0,0
1.072,3.889,8.945,-39.899998,-14.639999,-18.48,97.578125,-23.421877,6.3125,-0.047397,-0.065463,0.022055,62,0,0
1.136,4.205,8.933,-40.079998,-15,-19.38,97.078125,-24.765623,6.359375,-0.050544,-0.052115,0.022131,64,0,0
1.065,3.956,9.193,-39.96,-14.94,-19.8,97.734375,-23.109377,5.890625,-0.032573,-0.014181,0.02694,64,0,0
1.05,3.978,8.447,-39.66,-13.559999,-19.38,95.734375,-24.546877,5.546875,-0.011514,-0.003237,0.02917,64,0,0
1.369,3.99,9.689,-40.02,-13.32,-19.02,96.109375,-22.203123,6.734375,0.047815,0.043507,0.135712,65,0,0
1.464,4.545,8.399,-41.16,-13.2,-19.38,92.296875,-28.140623,9.09375,0.01664,-0.006629,0.111546,65,0,0
1.251,4.042,9.189,-41.46,-13.5,-18.72,94.859375,-23.84375,7.171875,0.112636,-0.03807,0.152249,65,0,0
1.139,4.188,8.813,-41.28,-13.0199995,-18.6,94.109375,-24.859377,6.03125,0.064159,-0.01357,0.056961,65,0,0
1.625,3.293,10.833,-41.46,-11.7,-18.779999,95.625,-16.625,8.140625,0.02612,-0.034451,0.04622,67,0,0
1.031,3.643,8.332,-40.62,-9.9,-20.88,92.265625,-23.328123,6.890625,-0.209691,-0.116008,0.099761,67,0,0
-0.952,3.008,9.399,-39.66,-9.599999,-23.58,91.75,-18.5625,-4.875,-0.084676,0.422721,0.133279,67,0,0
0.102,2.525,9.517,-39.3,-9.36,-24.779999,94.390625,-14.796875,0.390625,-0.305939,0.65467,-0.080922,71,0,0
-0.253,2.621,8.356,-39.96,-8.5199995,-24.18,91.90625,-17.734377,-1.265625,-0.366365,0.349367,-0.091818,71,0,0
0.418,2.726,10.491,-40.26,-8.639999,-23.699999,92.484375,-14.46875,2.125,-0.155802,0.14914,0.055514,71,0,0
0.256,3.264,8.964,-40.559998,-7.44,-24.66,89.421875,-19.859377,2.09375,-0.092983,-0.063885,0.098012,70,0,0
-0.026,3.073,8.698,-40.559998,-7.14,-24.66,88.296875,-19.453123,-0.34375,0.045583,-0.020122,0.204675,70,0,0
0.703,3.559,9.277,-40.379997,-6.06,-24.119999,86.078125,-20.5625,4.390625,0.135833,0.08802,0.254666,70,0,0
0.04,3.774,10.359,-41.1,-6.06,-23.16,85.84375,-20.515623,0.5625,0.187464,0.027559,0.269672,70,0,0
0.067,3.221,10.596,-41.219997,-6.3599997,-22.8,86.18751,-18.09375,0.21875,0.13904,0.028401,0.135254,76,0,0
0.545,2.496,9.22,-40.26,-7.74,-21.72,92.40625,-14.859375,2.09375,-0.20438,-0.010358,-0.161851,76,0,0
1.68,2.372,8.054,-40.62,-9.54,-21.3,91.34375,-16.5625,11.265625,-0.221951,-0.425126,-0.202204,76,0,0
0.5,1.84,9.866,-41.16,-11.34,-20.58,98.56249,-10.46875,3.015625,-0.178774,-0.46378,-0.302216,79,0,0
1.632,3.604,8.782,-41.46,-10.5,-21.18,92.56249,-22.171877,9.5625,-0.190528,-0.104689,-0.362718,79,0,0
1.213,2.932,9.715,-41.52,-9.24,-20.82,92.875,-16.6875,7.125,0.261158,-0.086284,0.052879,79,0,0
1.172,3.497,9.387,-41.28,-9.12,-21.3,91.31249,-20.140623,6.453125,0.090934,-0.050128,0.13074,75,0,0
1.409,3.92,8.995,-41.28,-8.46,-22.26,86.921875,-23.84375,8.421875,0.192181,0.003937,0.184506,75,0,0
0.923,3.573,10.28,-40.559998,-8.04,-22.859999,89.390625,-18.765623,4.65625,0.252045,0.040625,0.250889,75,0,0
0.677,3.956,9.785,-40.32,-7.62,-23.22,85.609375,-22.65625,3.921875,0.101218,0.094518,0.170283,75,0,0
0.576,2.877,8.681,-41.16,-8.04,-22.68,90.625,-18.09375,3.4375,0.057017,0.235012,0.05267,85,0,0
0.667,2.58,8.394,-41.16,-8.34,-22.5,89.328125,-17.5,4.765625,-0.116521,0.118136,-0.066562,85,0,0
-0.083,2.544,9.189,-41.16,-7.7999997,-22.02,92.46875,-15.296875,-0.8125,-0.067506,0.041366,-0.068,85,0,0
1.266,3.652,9.859,-41.16,-6.6,-22.92,88.328125,-19.84375,6.78125,-0.19871,0.137655,-0.145281,78,0,0
0.306,3.544,8.71,-41.219997,-5.8199997,-23.88,84.703125,-22.359377,1.984375,0.12216,-0.019345,0.222992,78,0,0
0.9,3.671,9.138,-41.52,-5.4,-23.82,83.890625,-22,5.09375,0.219194,0.111308,0.283657,78,0,0
0.725,3.963,9.653,-41.82,-5.52,-23.279999,83.375,-22.203123,4.0625,0.133604,0.071475,0.216092,86,0,0
0.612,4.598,8.878,-41.82,-6.6,-22.859999,83.671875,-27.546877,3.78125,0.092571,0.009835,0.12771,86,0,0
0.102,3.296,9.519,-40.98,-8.5199995,-22.8,90.359375,-18.5,0,0.006527,0.103703,-0.179424,86,0,0
1.206,3.078,8.995,-41.219997,-9.599999,-22.98,89.859375,-18.734377,6.890625,-0.180069,-0.027293,-0.339496,84,0,0
0.976,3.197,7.714,-41.1,-11.759999,-21.96,91.578125,-21.875,6.625,-0.056622,-0.340279,-0.191938,84,0,0
0.876,3.882,9.153,-40.5,-12.96,-21,95.93751,-22.390623,5.375,-0.090454,-0.301781,-0.335654,84,0,0
1.44,3.947,7.484,-40.5,-12.96,-20.88,90.90625,-27.671877,9.5,0.138862,-0.16457,-0.212393,84,0,0
0.801,3.195,10.768,-41.16,-12.9,-20.46,95.90625,-17.203123,4.140625,0.321735,-0.115171,-0.011425,82,0,0
0.849,3.942,10.776,-41.579998,-12,-20.88,96.18751,-20.671877,5.046875,-0.304954,-0.024943,-0.293073,82,0,0
0.725,4.011,9.038,-40.32,-11.46,-22.32,91.65625,-24.703123,5.75,-0.09422,0.007771,-0.022891,82,0,0
-0.155,1.591,10.295,-40.2,-11.4,-23.4,96.875,-9.953125,0.875,0.012259,0.025792,0.112111,56,0,0
-0.909,3.03,6.69,-40.32,-12,-23.76,97.125,-23.875,-6.765625,-0.524683,0.281439,-0.299052,56,0,0
0.536,3.695,9.019,-40.5,-12.24,-22.92,94.359375,-22.234377,3.828125,0.181501,0.300202,0.030224,56,0,0
-0.141,3.537,9.433,-40.8,-11.46,-22.68,95.421875,-19.1875,-1.015625,0.142572,-0.02954,0.079234,59,0,0
1.184,4.346,8.212,-41.1,-11.7,-22.56,90.046875,-27.4375,6.8125,0.12796,0.027004,0.100607,59,0,0
0.406,3.81,8.581,-42.059998,-12.96,-20.699999,92.59375,-24,2.578125,0.387858,-0.051314,0.258877,59,0,0
0.495,4.351,9.014,-41.579998,-14.219999,-19.5,96.421875,-25.203123,3.5,0.15596,-0.096532,-0.063206,59,0,0
-0.157,3.035,9.947,-40.68,-15.059999,-19.619999,97.984375,-19.296877,-0.359375,0.04482,-0.015355,-0.25741,56,0,0
0,2.443,9.081,-39.719997,-15.54,-20.76,104.171875,-14.734375,-0.34375,-0.436619,0.053506,-0.520667,56,0,0
1.687,3.353,7.97,-38.76,-16.8,-21,99.828125,-23.296877,11.171875,-0.311131,-0.187764,-0.332844,56,0,0
0.004,3.305,8.889,-38.219997,-17.1,-21.66,104.06249,-19.359377,-0.640625,-0.053537,-0.286517,-0.171898,56,0,0
0.078,4.131,8.578,-37.62,-16.56,-22.619999,99.203125,-25.453123,1.015625,0.033518,0.047221,-0.120716,56,0,0
0.16,4.1,9.981,-37.68,-16.74,-23.1,99.25,-22.46875,1.375,0.288014,0.134264,0.133412,56,0,0
0.205,3.846,9.778,-37.98,-16.5,-23.76,99.65625,-21.921877,1.125,0.074401,0.072793,0.044311,57,0,0
0.909,4.646,8.842,-38.28,-16.32,-23.16,96.53125,-28.265623,4.0625,0.019733,0.089271,0.01773,57,0,0
-0.562,0.986,10.151,-39.3,-16.02,-23.16,106.921875,-4.84375,-2.75,-0.305461,-0.123261,-0.140612,57,0,0
-0.507,2.934,7.791,-39.36,-16.5,-22.199999,100.265625,-21.140623,-3.671875,-0.44817,0.183837,-0.283967,57,0,0
-0.95,2.372,10.737,-39.12,-16.8,-21.66,104.671875,-12.375,-5.234375,0.024627,0.266081,-0.047115,56,0,0
-0.09,3.08,8.59,-39.18,-15.96,-23.82,103.31249,-18.71875,-1.015625,-0.244857,0.153513,-0.209608,56,0,0
0.533,3.841,9.007,-39,-15.24,-23.58,95.078125,-24.1875,4.34375,0.377874,-0.191373,0.353234,56,0,0
0.011,3.846,9.847,-39,-14.4,-22.98,97.21875,-21.15625,0.453125,0.362235,-0.177542,0.437409,57,0,0
-0.263,3.638,10.345,-38.879997,-15.54,-23.1,98.43751,-19.890623,-1.5625,0.086835,0.031355,0.137324,57,0,0
-0.263,1.89,10.34,-38.46,-17.46,-22.98,107.984375,-9.390625,-1.203125,-0.357939,0.066117,-0.259116,57,0,0
0.215,2.747,6.934,-37.559998,-19.26,-23.16,105.640625,-20.21875,-0.421875,-0.40911,-0.080588,-0.496809,56,0,0
-0.562,2.348,10.438,-36.12,-22.02,-21.48,110.5,-12.921875,-3.046875,0.129407,-0.128881,-0.282305,56,0,0
0.459,4.057,7.824,-36,-21.359999,-22.26,108.734375,-26.8125,3.015625,-0.077036,-0.099188,-0.466646,56,0,0
-0.055,3.676,9.579,-35.88,-21.359999,-22.199999,107.53125,-21.21875,-0.453125,0.182203,-0.046744,-0.174876,56,0,0
-0.615,3.147,11.185,-35.1,-20.64,-23.16,110.734375,-15.640625,-3.078125,0.033845,-0.00362,-0.115321,56,0,0
1.718,3.032,9.411,-35.76,-19.439999,-23.46,103.34375,-20.90625,9.984375,0.006074,0.034559,0.017646,56,0,0
-0.457,2.429,6.951,-36.66,-20.22,-22.32,112.953125,-15.484375,-4.796875,-0.317326,-0.080123,-0.131737,56,0,0
-1.055,1.867,8.315,-36.6,-20.76,-21.9,109.03125,-12.953125,-6.5,-0.179623,0.259251,-0.083529,56,0,0
-0.392,2.484,9.756,-36.66,-21.359999,-21.48,112.578125,-14.28125,-2.40625,-0.135747,0.162716,-0.171503,56,0,0
0.821,3.521,8.717,-37.079998,-19.8,-21.72,107.40625,-22.453123,5.625,0.106456,-0.258663,-0.002173,56,0,0
0.483,3.166,11.027,-38.82,-17.699999,-20.82,106.328125,-16.484375,2.609375,0.249567,-0.309013,0.27954,56,0,0
-0.351,3.432,9.746,-38.46,-17.699999,-21.06,105.65625,-18.765623,-1.984375,-0.041746,-0.097807,0.247745,56,0,0
-0.21,1.254,10.582,-37.38,-18.84,-21.119999,109.828125,-7.015625,-1.015625,-0.030728,0.127038,0.128205,56,0,0
1.129,2.388,7.803,-37.26,-19.859999,-21.9,109.65625,-17.171877,7.40625,-0.270721,0.032058,-0.186196,56,0,0
-0.064,2.656,8.913,-36.96,-20.52,-21.359999,109.390625,-17.359377,1.0625,0.121088,-0.444132,-0.037192,56,0,0
0.394,3.535,9.579,-35.7,-19.5,-22.26,109.28125,-19.328123,1.984375,0.118357,0.006475,-0.037009,56,0,0
-0.509,3.398,9.387,-35.88,-19.92,-22.56,106.78125,-19.65625,-3.140625,0.172098,0.146361,0.032212,56,0,0
-0.672,3.257,10.584,-35.52,-20.16,-23.82,107.65625,-17.328123,-3.296875,0.23462,0.213594,0.129523,56,0,0
-0.067,4.148,9.263,-35.7,-19.859999,-23.82,106.375,-23.609377,-1.53125,0.044086,0.211001,0.010601,56,0,0
-0.73,0.55,10.73,-36.48,-19.26,-23.519999,113.40625,-2.75,-2.796875,-0.270257,-0.183634,-0.147274,56,0,0
0.5,3.841,6.714,-35.7,-20.52,-22.68,99.359375,-30.859377,2.796875,-0.267289,0.04158,-0.139929,56,0,0
-0.902,1.797,10.886,-35.46,-22.5,-20.4,114.359375,-9.046875,-4.984375,0.303766,0.181708,0.119055,56,0,0
-0.66,2.546,8.676,-35.28,-21.6,-21.96,114.640625,-15.28125,-4.90625,-0.365311,0.12071,-0.477537,56,0,0
0.299,3.482,8.837,-35.82,-21,-22.68,105.75,-23.0625,2.625,0.354222,-0.119907,0.100244,58,0,0
0.622,4.306,9.691,-36.899998,-20.1,-21.72,105.609375,-24.21875,3.5625,0.465259,-0.200652,0.382211,58,0,0
0.526,3.796,11.025,-36.3,-19.439999,-21.9,106.140625,-20.796877,1.953125,0.185823,-0.018353,0.248552,58,0,0
-0.131,0.844,10.682,-35.1,-20.46,-21.72,115.75,-4.03125,-0.703125,-0.520288,-0.048651,-0.23334,58,0,0
0.722,2.661,6.046,-34.079998,-23.699999,-21.3,113.484375,-23.421877,5.46875,-0.573468,-0.133352,-0.41583,56,0,0
-0.299,2.463,10.287,-33.18,-25.5,-20.699999,117.796875,-13.640625,-1.375,0.305611,-0.335567,-0.227071,56,0,0
-0.105,3.777,8.54,-32.1,-25.439999,-22.56,117.546875,-22.140623,-0.890625,0.031644,0.1153,-0.373853,56,0,0
-1.053,3.269,10.766,-31.619999,-26.16,-22.5,116.609375,-17.234377,-5.65625,0.226955,0.207703,-0.124187,56,0,0
-1.199,3.308,10.95,-31.08,-25.439999,-23.279999,119.484375,-16.09375,-5.765625,-0.027458,0.275023,-0.217138,56,0,0
0.993,3.281,11.242,-31.619999,-24.42,-22.859999,113.671875,-18.515623,4.875,-0.044871,0.215255,-0.173328,56,0,0
-0.651,2.065,6.721,-32.88,-24.3,-21.96,120.96875,-13.890625,-6.046875,-0.34678,-0.134075,-0.192579,58,0,0
-1.371,1.881,8.636,-33.36,-25.56,-21.42,113.90625,-14.5625,-6.984375,-0.041315,0.130826,0.041166,58,0,0
-0.955,2.664,9.292,-32.399998,-26.519999,-19.859999,120.359375,-15.546875,-5.5,0.044321,0.249589,-0.058154,58,0,0
0.153,3.252,8.159,-31.92,-25.619999,-21.6,118.96875,-20.90625,0,-0.08679,0.168841,-0.199991,58,0,0
-0.402,4.093,9.05,-33,-24.359999,-22.199999,113.81249,-24.09375,-2.765625,0.226205,-0.129553,0.091817,56,0,0
-1,3.296,11.932,-32.88,-23.4,-23.519999,113.46875,-15.65625,-4,0.333975,-0.100527,0.400628,56,0,0
-0.809,1.072,11.432,-32.76,-23.1,-23.58,117.21875,-6.5625,-2.796875,-0.085871,-0.069536,0.164492,56,0,0
-0.753,2.257,7.044,-31.8,-25.56,-22.56,120.546875,-15.984375,-6.5625,-0.706136,0.10509,-0.335249,57,0,0
-0.337,2.025,8.509,-30.06,-27.66,-21.779999,121.875,-13.546875,-1.171875,0.01219,-0.068193,-0.172761,57,0,0
-1.496,2.649,9.567,-28.8,-27.539999,-24.119999,124,-14.96875,-8.515625,0.024108,-0.080313,-0.36604,57,0,0
-1.414,3.614,9.136,-28.26,-27.84,-24.779999,118.296875,-21.78125,-8.171875,0.120134,0.159378,-0.200521,56,0,0
-1.725,2.652,11.001,-28.38,-27.42,-24.3,122.5,-13.4375,-8.671875,0.204355,0.211739,0.028681,56,0,0
-0.617,3.86,9.009,-29.699999,-25.74,-24.42,118.93751,-22.484377,-4.390625,-0.012105,0.077203,-0.069658,56,0,0
-1.141,0.584,9.821,-30.72,-25.5,-23.58,124.59375,-3.296875,-6.59375,-0.040087,-0.321853,0.081839,56,0,0
-0.631,2.113,7.439,-31.08,-25.92,-22.32,117.953125,-17.0625,-5.328125,-0.30332,-0.136547,-0.07902,56,0,0
-1.06,1.606,10.072,-31.56,-27.599998,-20.1,124.84375,-8.421875,-6.109375,-0.153855,0.070674,-0.053581,56,0,0
-0.165,2.75,9.543,-31.56,-27.06,-20.279999,124.484375,-14.859375,-2.328125,-0.24851,0.042236,-0.24359,56,0,0
-0.521,3.889,8.593,-32.46,-25.56,-21.119999,114.578125,-25.59375,-2.046875,0.488297,-0.222579,0.231539,56,0,0
-0.047,2.573,11.932,-33.48,-24.72,-20.76,119.171875,-11.984375,-0.0625,0.379533,-0.106174,0.398532,56,0,0
0.54,3.114,9.392,-33.42,-24.119999,-21.06,113.796875,-20.4375,3.4375,-0.008921,-0.04709,0.197054,56,0,0
0.607,2.173,10.01,-33.36,-24.24,-20.46,120.421875,-11.921875,3.1875,-0.065251,-0.086632,0.124128,56,0,0
0.361,2.235,6.584,-32.46,-25.019999,-21.119999,119.65625,-17.53125,1.234375,-0.332845,-0.10593,-0.115336,56,0,0
-0.71,1.979,10.761,-31.08,-26.039999,-22.08,122.703125,-10.296875,-3.671875,-0.043592,-0.110128,-0.122717,56,0,0
0.122,4.011,8.748,-31.019999,-25.439999,-22.68,116.90625,-24.953123,0.8125,-0.00812,0.066123,-0.125746,55,0,0
-0.612,3.255,10.656,-31.019999,-25.199999,-22.08,116.921875,-17.59375,-3.25,0.426438,0.13807,0.224064,55,0,0
-1.33,2.46,10.821,-30.359999,-25.26,-22.859999,122.21875,-11.328125,-6.890625,-0.156264,0.199034,-0.111346,55,0,0
0.126,2.044,10.369,-30.119999,-25.619999,-22.5,118.796875,-12.640625,0.984375,0.018521,0.058683,-0.030796,55,0,0
-0.806,2.364,5.44,-30.779999,-26.039999,-21.3,120.578125,-22.609377,-8.34375,-0.113582,-0.092888,-0.147613,56,0,0
-1.18,1.575,9.014,-31.019999,-26.76,-19.92,123.015625,-9.8125,-7.375,-0.113406,0.179573,-0.152587,56,0,0
0.028,3.262,9.895,-32.1,-25.439999,-20.46,121.203125,-18.4375,0.671875,-0.053286,0.144517,-0.113465,56,0,0
0.751,3.803,9.476,-33,-23.82,-21.48,115.921875,-21.9375,3.921875,0.222824,-0.214551,0.153906,56,0,0
0.789,3.506,10.268,-33.36,-23.4,-21.119999,114.640625,-18.9375,3.71875,0.29552,-0.186639,0.451898,56,0,0
0.653,3.375,9.56,-32.7,-24.3,-20.4,115.56249,-20.546877,1.40625,0.092391,-0.103603,0.251305,56,0,0
-0.579,1.12,10.417,-31.019999,-26.699999,-19.02,125.68751,-5.328125,-3.296875,-0.449253,-0.034708,-0.255966,56,0,0
-0.268,2.388,6.156,-28.08,-29.519999,-19.56,123.890625,-21.78125,-3.046875,-0.309614,0.150213,-0.557166,56,0,0
0,2.709,10.859,-26.16,-30.599998,-19.5,131.6875,-13.78125,-0.421875,0.18824,0.004729,-0.496869,56,0,0
-0.382,3.69,9.028,-26.099998,-29.64,-20.82,128.92188,-21.703123,-2.15625,0.040137,-0.121521,-0.488592,56,0,0
-0.665,3.41,10.12,-25.92,-30.119999,-20.16,127.21875,-19.125,-3.6875,0.307094,0.119924,-0.066769,56,0,0
-1.479,3.106,10.67,-25.32,-30.359999,-20.46,130.9375,-15.625,-7.171875,0.061181,0.175971,-0.132014,56,0,0
0.459,1.584,11.604,-25.619999,-30.24,-20.82,134.09375,-8.796875,2.1875,-0.06019,0.048095,-0.194816,56,0,0
-0.651,2.295,5.72,-26.46,-29.4,-20.58,131.67188,-19.78125,-5.65625,-0.406148,-0.295328,-0.385173,56,0,0
-1.017,1.215,9.256,-27.599998,-30.3,-18.779999,130.64062,-8.21875,-5.625,-0.027324,0.118073,0.073748,56,0,0
0.078,2.743,9.16,-28.38,-29.099998,-19.02,131.09375,-15.609375,-0.171875,-0.281645,0.073872,-0.058109,56,0,0
0.806,4.078,7.724,-28.98,-27.24,-21.119999,118.93751,-28.546877,5.09375,0.470266,-0.202332,0.357222,56,0,0
-0.155,2.759,11.223,-29.88,-25.859999,-21.18,122.828125,-13.703125,-0.8125,0.497894,-0.1153,0.622671,56,0,0
-0.172,3.489,10.496,-30.06,-25.619999,-21.18,121.859375,-18.03125,-1.453125,-0.176353,0.059888,0.244679,56,0,0
-0.832,0.871,10.024,-29.82,-27,-19.859999,127.140625,-5.09375,-4,-0.111814,0.022465,0.140486,56,0,0
0.315,2.345,6.951,-28.56,-29.4,-18.6,128.76562,-18.6875,2.4375,-0.42234,0.052739,-0.259891,56,0,0
-0.406,2.099,9.356,-27.3,-30.599998,-18.3,130.96875,-13.578125,-1.28125,4.01E-04,0.014922,-0.282814,56,0,0
0.174,3.408,9.598,-26.16,-29.64,-20.279999,131.5,-18.65625,0.3125,0.024956,-0.010928,-0.303028,56,0,0
-0.246,3.664,9.366,-26.279999,-29.519999,-20.58,126.90625,-21.90625,-1.09375,0.375426,-0.064862,0.026255,56,0,0
-0.885,3.037,10.603,-26.22,-30.06,-20.82,128.73438,-16.21875,-4.28125,0.369365,-0.012393,0.148302,56,0,0
0.744,3.03,10.364,-25.8,-30.42,-20.76,129.84375,-18.234377,3.671875,0.054095,0.104341,-0.010604,56,0,0
-0.586,2.901,6.819,-27,-30,-19.08,131.42188,-18.703123,-7.46875,-0.197341,-0.059328,-0.18965,55,0,0
-1.448,1.723,9.174,-27.48,-30.359999,-17.52,129.75,-10.75,-8.390625,-0.028272,0.207827,-0.040072,55,0,0
-0.564,3.037,8.794,-27.48,-31.32,-16.5,131.3125,-18.09375,-4.0625,-0.185051,0.222446,-0.099032,55,0,0
0.686,3.231,9.11,-27.9,-29.939999,-17.52,129.71875,-19.625,3.421875,0.25484,-0.18839,0.053922,56,0,0
0.624,3.288,9.924,-29.099998,-29.039999,-16.26,130.29688,-17.265623,2.9375,0.075082,-0.463272,0.024384,56,0,0
0.892,5.383,9.332,-29.76,-28.74,-16.68,122.046875,-31.203123,5.46875,0.359681,-0.332466,0.340383,56,0,0
-0.811,1.158,11.29,-29.82,-29.519999,-17.52,129.60938,-5.90625,-3.53125,0.009655,-0.054524,0.163056,56,0,0
0.775,2.135,7.104,-27.06,-32.219997,-17.1,134.4375,-15.28125,4.5625,-0.726906,0.109641,-0.288179,56,0,0
-0.718,3.047,8.583,-24.9,-33.899998,-16.08,135.21875,-20.046877,-4.25,0.06829,-0.10389,-0.371938,56,0,0
-0.497,4.157,9.026,-24,-33.6,-18,134.01562,-25.140623,-2.375,0.388435,0.248766,-0.241962,56,0,0
-0.579,3.051,11.453,-23.22,-33.059998,-19.199999,135.51562,-15.109375,-3.609375,0.24266,0.234873,-0.153904,56,0,0
0.136,4.107,9.45,-22.8,-32.34,-20.58,136.5,-21.84375,-1.421875,-0.224432,0.091919,-0.281818,56,0,0
-1.108,0.56,10.512,-24,-31.859999,-20.279999,139.26562,-2.828125,-5.65625,-0.201035,-0.178715,-0.157237,56,0,0
-0.579,2.726,6.915,-24.48,-33.059998,-18.779999,133.01562,-22.90625,-3.78125,-0.364617,-0.007096,-0.121483,56,0,0
-1.419,1.855,9.325,-24.6,-34.44,-16.26,138.1875,-10.0625,-8.984375,0.013617,0.225319,0.033422,56,0,0
-0.639,3.389,8.765,-24.779999,-33.96,-16.68,135.89062,-20.671877,-4.421875,-0.101421,0.296025,-0.142372,56,0,0
-0.143,3.039,9.938,-25.38,-32.76,-17.58,134.78125,-17.359377,-0.984375,0.337818,-0.041035,0.114269,56,0,0
0.734,3.308,11.037,-26.22,-31.92,-18.06,136.29688,-16.1875,4.09375,0.083307,-0.392321,0.093041,56,0,0
0.545,1.663,10.4,-26.16,-31.619999,-18.359999,135.29688,-10.15625,3.109375,0.008813,-0.352233,0.117634,56,0,0
0.323,1.991,7.808,-25.26,-33.6,-17.699999,137.75,-14.078125,1.40625,-0.273828,-0.111703,-0.026639,56,0,0
-0.469,2.834,8.353,-22.92,-35.219997,-16.68,139.95312,-18.125,-2.65625,-0.146803,-0.069883,-0.197469,56,0,0
-0.607,3.387,9.366,-21.9,-35.1,-17.4,140.09375,-19.65625,-3.25,0.311717,0.182938,-0.156064,56,0,0
-0.581,3.482,9.981,-21.72,-35.219997,-18.06,139.54688,-20.25,-3.140625,0.310893,0.156165,-0.129593,56,0,0
0.05,3.363,10.795,-21.06,-35.1,-18.779999,142.71875,-16.59375,-0.421875,0.066443,0.069304,-0.139282,55,0,0
0.517,3.528,9.663,-22.199999,-35.1,-18.72,139.42188,-24.234377,3.6875,0.110397,-0.144051,-0.098568,55,0,0
-0.538,2.604,7.135,-22.68,-35.1,-17.52,141.76562,-17.828123,-4.375,-0.216836,-0.073024,-0.120299,55,0,0
-1.156,1.433,10.026,-22.5,-36.059998,-16.199999,142.14062,-8.453125,-5.859375,-0.28533,0.061549,-0.076092,55,0,0
-0.088,2.917,9.519,-22.32,-36.239998,-16.08,143.89062,-16.890623,0,-0.291151,0.002457,-0.170719,53,0,0
0.268,3.808,8.238,-22.68,-35.16,-17.1,139.37502,-25.015623,1.484375,0.341449,-0.12466,0.069221,53,0,0
0.167,3.528,9.864,-23.699999,-34.86,-17.279999,139.07812,-19.1875,0.140625,0.377958,-0.030842,0.196532,53,0,0
-0.464,3.726,11.027,-24.48,-33.96,-18.18,138.09375,-17.9375,-1.265625,0.023742,-0.026339,0.171587,56,0,0
0.057,1.924,9.825,-23.699999,-34.5,-17.82,139.87502,-11.09375,2.15625,-0.013585,0.008721,0.163533,56,0,0
-0.234,1.78,7.216,-21.66,-35.82,-16.32,142.23438,-14.078125,-1.59375,-0.305086,-0.001669,-0.094391,56,0,0
-0.43,3.205,9.356,-20.1,-37.5,-15.78,145.14062,-18.984377,-2.234375,-0.162044,0.033604,-0.320874,56,0,0
-0.935,3.561,9.033,-19.08,-37.44,-17.76,144.28125,-21.25,-5.34375,0.28958,0.072786,-0.219831,56,0,0
-1.125,3.966,10.161,-18,-37.2,-18.359999,142.73438,-21.671877,-5.96875,0.356276,0.160314,-0.070362,56,0,0
-2.099,3.382,10.745,-16.56,-37.44,-19.38,146.79688,-14.859375,-10.65625,-0.021858,0.249845,-0.181458,56,0,0
-1.627,1.196,11.815,-17.4,-37.5,-18.3,151.29688,-6,-6.1875,-0.260385,-0.068987,-0.348132,56,0,0
-0.706,2.257,7.499,-18.48,-37.559998,-17.22,143.71875,-19,-4.25,-0.136943,-0.14496,-0.221692,56,0,0
-0.734,1.833,9.588,-18.779999,-38.46,-15.179999,149.53125,-9.84375,-4.90625,-0.152026,0.21386,-0.053395,56,0,0
0.366,3.164,8.7,-19.56,-37.44,-15.96,148.39062,-19.484377,1.453125,-0.292881,-0.090452,-0.156947,54,0,0
0.677,3.394,10.12,-20.82,-36.54,-16.68,146.67188,-18.796877,3.6875,0.20864,-0.428795,0.028642,54,0,0
-0.873,3.683,10.893,-21.3,-35.64,-17.22,143.79688,-18.359377,-4.109375,0.110829,-0.281792,0.189665,54,0,0
-1.192,1.462,10.172,-20.82,-35.94,-17.58,146.21875,-7.46875,-6.328125,-0.12295,0.039083,0.173615,56,0,0
0.469,1.63,7.156,-19.38,-36.66,-17.279999,149.35938,-12.75,3.578125,-0.406801,-0.048168,-0.064852,56,0,0
-0.002,2.901,8.765,-18.3,-37.86,-16.5,149.76562,-17.90625,-0.25,-0.087809,-0.176283,-0.216992,56,0,0
-0.409,4.085,9.208,-17.22,-37.739998,-17.52,148.03125,-24.21875,-1.5625,0.51827,-0.098558,-0.078267,56,0,0
-1.093,3.267,10.704,-16.32,-37.92,-17.58,147.17188,-18.03125,-5.328125,0.503915,0.206597,0.032594,56,0,0
-0.028,4.279,8.76,-15.36,-38.399998,-18.18,151.04688,-24.53125,-1.5625,-0.110623,0.273836,-0.174901,56,0,0
-1.984,0.43,9.959,-15.48,-38.1,-18.06,153.96875,-2.203125,-11,-0.187026,-0.071419,-0.284158,56,0,0
-0.598,2.396,8.279,-17.1,-38.219997,-16.68,150.25,-17.828123,-3.140625,-0.237533,-0.005972,-0.180187,56,0,0
-1.199,1.541,9.754,-17.88,-38.219997,-15.9,151.25,-8.28125,-5.96875,-0.148026,0.041126,0.018298,56,0,0
-0.282,2.862,8.301,-17.699999,-38.04,-16.859999,149.45312,-19.25,-1.421875,-0.295633,0.122784,0.01465,56,0,0
-0.124,3.71,8.432,-18.48,-37.739998,-16.619999,146.75,-23.546877,-1.125,0.335953,-0.060532,0.193278,56,0,0
-0.888,3.329,11.283,-19.5,-36.899998,-17.279999,147.26562,-16.25,-2.859375,0.36698,-0.180943,0.219406,56,0,0
0.248,0.806,11.673,-20.22,-35.76,-18.48,149.46875,-3.921875,1.28125,-0.393573,-0.192547,0.01035,56,0,0
1.048,1.235,8.463,-19.8,-36.059998,-18.18,151.10938,-7.96875,6.921875,-0.52552,-0.164632,-0.008792,56,0,0
-0.272,2.245,8.988,-18.42,-37.26,-17.4,151.39062,-12.375,-0.171875,-0.217202,-0.385456,-0.090383,56,0,0
0.392,3.844,9.045,-17.279999,-37.14,-18,147.96875,-23.046877,2.15625,0.376889,0.141602,0.03859,56,0,0
-0.203,2.728,10.701,-16.92,-37.26,-18,150.70312,-14.90625,-0.78125,0.470689,0.08811,0.005481,56,0,0
-0.213,3.212,10.737,-16.199999,-37.5,-18.119999,152.1875,-16.34375,-0.609375,0.04548,0.022013,-0.145221,54,0,0
0.134,2.197,10.993,-16.38,-36.899998,-18.6,152.57812,-14.390625,3.578125,0.088708,0.011002,-0.104277,54,0,0
-0.26,2.68,6.642,-17.699999,-37.26,-16.32,147.82812,-20.96875,-3.921875,-0.141011,0.233954,-0.029358,54,0,0
-1.089,1.519,8.406,-17.82,-37.86,-15.299999,149.29688,-10.171875,-7.515625,-0.11807,0.453148,0.116026,56,0,0
-0.593,2.745,9.859,-18.18,-37.8,-15.599999,149.40625,-15.25,-3.46875,-0.130163,0.136575,0.001853,56,0,0
0.684,2.932,9.988,-19.619999,-37.02,-16.56,149.21875,-16.421875,3.359375,0.091471,-0.192009,0.048387,56,0,0
0.797,3.317,11.664,-21.119999,-36.719997,-17.16,148.39062,-14.84375,4.234375,0.048886,-0.466061,0.081826,56,0,0
-0.167,0.983,11.19,-20.82,-35.94,-17.82,147.29688,-6.5625,0.1875,0.071491,-0.317577,0.180351,56,0,0
0.201,1.041,6.953,-18.6,-37.26,-17.4,149.71875,-8.421875,0.640625,-0.486466,0.169349,0.050268,56,0,0
-0.248,1.914,8.04,-16.26,-39.12,-14.88,154.48438,-12.03125,-1.3125,-0.330765,0.063816,-0.251034,56,0,0
0.057,4.073,8.559,-14.82,-38.76,-16.32,154.04688,-24.640623,0.25,0.361772,-0.126843,-0.30795,55,0,0
-1.096,3.793,9.739,-15,-38.7,-16.619999,150.20312,-21.8125,-5.90625,0.740643,-0.003995,-0.095473,55,0,0
-1.467,2.099,12.233,-14.099999,-38.64,-16.92,154.17188,-9.953125,-6.453125,0.167007,0.334305,-0.053497,55,0,0
1.103,4.78,8.887,-13.32,-38.76,-17.699999,154.40625,-28.71875,5.328125,-0.185512,0.213883,-0.187153,56,0,0
-1.383,2.352,6.987,-14.28,-38.52,-16.08,153.48438,-15.953125,-12.78125,0.074335,-0.004738,-0.112462,56,0,0
-0.517,1.567,9.402,-15.36,-39.719997,-12.42,155.51562,-9.84375,-2.578125,-0.06625,0.128324,-0.082123,56,0,0
0.457,3.142,8.708,-15.96,-39.3,-12.12,155.82812,-19.890623,2.9375,-0.169026,-0.084725,-0.092579,56,0,0
0.181,3.705,8.643,-16.5,-37.739998,-14.099999,152.42188,-23.0625,0.421875,0.238147,-0.227694,0.064982,56,0,0
-0.392,2.822,11.582,-17.82,-38.1,-14.88,152.12498,-13.546875,-0.8125,0.189184,-0.121729,0.181795,56,0,0
-0.617,1.859,11.08,-17.279999,-37.86,-16.199999,151.15625,-10.78125,-2.46875,-0.09614,0.002181,0.17256,56,0,0
1.144,1.429,7.913,-16.08,-38.219997,-16.859999,155.53125,-9.53125,7.375,-0.536157,-0.014985,-0.029856,56,0,0
0.114,2.161,5.639,-15,-39.6,-15.059999,155.10938,-20.703123,0.390625,-0.064565,-0.345807,-0.185404,56,0,0
0.052,3.425,9.225,-15,-39.239998,-15.059999,156.09375,-19.03125,0.171875,0.322246,-0.012419,-0.083659,56,0,0
-1.28,3.544,9.713,-15.179999,-38.52,-16.02,151.6875,-20.671877,-6.8125,0.325338,0.158312,0.023075,56,0,0
-0.067,3.255,12.001,-13.98,-38.76,-16.56,155,-15.4375,-0.203125,0.137169,0.277122,0.081536,56,0,0
0.854,3.489,8.873,-14.5199995,-39.059998,-17.1,152.5,-26.90625,5.625,0.232302,-0.055355,0.001972,56,0,0
-0.651,2.812,6.137,-15.12,-39.3,-15.42,153.51562,-21.9375,-6.21875,-0.152986,0.167193,-0.030847,56,0,0
-0.727,0.907,10.723,-15.719999,-39.66,-13.98,155.40625,-5.46875,-3.78125,-0.368883,0.14348,-0.074432,56,0,0
0.155,3.018,8.456,-16.26,-39,-13.559999,154.25,-19.515623,0.78125,-0.42171,-0.048584,-0.095922,56,0,0
0.44,3.758,8.358,-16.32,-38.46,-14.759999,153.17188,-24.796877,3.1875,0.477549,-0.312367,0.105192,56,0,0
0.378,3.59,9.861,-17.22,-38.82,-14.7,152.03125,-20.078123,2.234375,0.514983,-0.220008,0.179366,56,0,0
0.05,3.827,10.601,-16.56,-39.36,-14.759999,152.35938,-20.015623,0.140625,0.036941,0.011898,0.103687,56,0,0
-1.093,1.39,10.048,-15,-39.96,-15.12,156.37502,-7.234375,-5.328125,-0.356007,0.07539,-0.083106,56,0,0
-0.392,2.527,6.285,-12.66,-40.739998,-14.16,157.92188,-21.15625,-3.421875,-0.531373,0.128839,-0.319084,56,0,0
-0.265,2.733,9.217,-10.32,-42.3,-12.3,162.17188,-16.65625,-2.046875,0.099194,-0.031557,-0.353055,56,0,0
-0.146,4.164,8.83,-9.36,-41.46,-13.559999,164.1875,-24.921877,-0.5625,0.332912,-0.239069,-0.414271,56,0,0
-1.254,3.394,10.345,-8.58,-40.92,-14.099999,162.54688,-18.59375,-6.453125,0.396114,-0.111006,-0.296961,56,0,0
-0.969,3.573,10.441,-7.2,-40.92,-15.179999,163.8125,-18.125,-6.3125,-0.049999,0.351812,-0.176082,56,0,0
-1.527,1.436,9.876,-6.7799997,-41.34,-15.599999,168.17188,-7.46875,-7.6875,-0.254347,0.03139,-0.302773,56,0,0
-0.61,2.814,7.389,-8.46,-42.6,-14.7,162.96875,-21.921877,-5.015625,-0.212582,0.04428,-0.198889,56,0,0
-1.412,1.455,10.182,-9.719999,-42.42,-12.059999,165.59375,-8.3125,-5.765625,-0.014923,0.003438,-0.031511,56,0,0
0.727,4.208,7.18,-10.62,-41.16,-12.78,163.34375,-30.515623,4.765625,-0.008294,-0.05902,0.08037,56,0,0
0.213,3.451,9.761,-13.2,-40.44,-13.86,159.95312,-20.671877,0.53125,0.711821,-0.268278,0.290998,56,0,0
0.361,3.209,10.632,-15,-39.6,-13.86,157.82812,-16.015625,1.59375,-0.10797,-0.112527,0.328003,56,0,0
0.208,2.372,11.41,-15.299999,-39.719997,-14.28,155.90625,-12.890625,1.5625,-0.10152,-0.018805,0.362208,56,0,0
1.127,2.221,7.946,-14.4,-40.2,-14.16,159.12498,-15.421875,7.625,-0.375569,-0.026874,0.157202,56,0,0
0.342,2.197,7.118,-13.08,-41.219997,-12.3,159.8125,-17.828123,2.484375,-0.078422,-0.208796,-0.027518,56,0,0
0.136,3.166,8.53,-12.059999,-40.62,-13.08,160.78125,-19.921877,0.875,0.041072,-0.072547,-0.128461,56,0,0
-1.101,3.698,9.564,-11.88,-40.02,-15.48,158.03125,-21.15625,-5.078125,0.287385,0.137845,-0.061909,56,0,0
-1.44,2.506,11.501,-11.099999,-40.02,-16.8,157.8125,-12.75,-7.015625,0.048091,0.552841,0.100499,56,0,0
-0.193,1.388,12.391,-10.2,-40.26,-17.52,161.37502,-9.15625,-0.59375,-0.219904,0.343628,-0.048476,56,0,0
0.016,2.695,6.367,-10.8,-39.6,-18.42,161.12498,-18.859377,-1.125,-0.596289,0.004693,-0.255066,56,0,0
-0.488,1.105,9.919,-13.259999,-39.42,-16.8,160.01562,-6.734375,-2.484375,-0.104162,-0.090221,-0.059554,56,0,0
-0.409,2.156,8.641,-15.66,-39.899998,-15.36,155.8125,-13.296875,-3.015625,-0.255326,0.006712,0.194251,56,0,0
0.998,3.351,9.114,-15.96,-39.12,-16.859999,155.70312,-21.03125,6.453125,0.350221,-0.184468,0.327089,56,0,0
0.28,2.601,10.711,-17.58,-37.86,-16.8,153.59375,-14.109375,1.703125,0.412387,-0.353917,0.254322,56,0,0
0.241,3.336,10.333,-18.48,-37.8,-16.5,150.10938,-18.328123,1.375,0.039895,-0.058799,0.314441,56,0,0
-0.629,1.589,8.983,-16.26,-38.52,-16.98,152.85938,-9.53125,-4.625,-0.113155,0.131967,0.223507,56,0,0
0.177,1.737,7.204,-13.799999,-39.719997,-16.92,157.09375,-13.234375,0.734375,-0.29272,0.134083,-0.094762,56,0,0
-0.076,2.676,9.715,-11.46,-40.2,-15.96,160.48438,-14.90625,-0.3125,-0.033803,-0.106632,-0.360956,56,0,0
-0.337,3.987,9.469,-10.62,-40.44,-16.619999,159.87502,-22.84375,-1.59375,0.40989,-0.092478,-0.293769,56,0,0
-1.278,2.91,10.639,-9.96,-40.32,-16.68,159.39062,-15.84375,-6.171875,0.499458,0.018633,-0.173632,56,0,0
-1.254,2.489,11.281,-9.059999,-40.86,-17.22,161.64062,-11.03125,-7.171875,-0.23078,0.431998,-0.185856,56,0,0
-0.981,1.369,9.73,-10.2,-40.5,-16.56,165.4375,-9.703125,-2.578125,-0.189484,-0.039619,-0.26936,56,0,0
-0.292,2.666,6.223,-12.12,-40.739998,-15.12,158.64062,-22.609377,-3.28125,-0.103565,-0.013114,-0.051084,56,0,0
-0.447,1.598,10.201,-14.46,-40.559998,-14.82,159.3125,-9.78125,-0.78125,0.049557,0.138994,0.211599,56,0,0
-0.052,2.561,8.772,-14.88,-38.82,-16.02,155.8125,-15.453125,-1.03125,-0.247888,-0.005771,0.20594,56,0,0
0.823,3.209,10.146,-16.08,-37.559998,-17.88,155.23438,-18.65625,5.046875,0.289831,-0.239909,0.295715,56,0,0
0.198,2.58,11.293,-17.4,-37.32,-18.18,152.8125,-13.0625,0.953125,0.130174,-0.284091,0.255309,56,0,0
0.533,3.36,10.352,-16.619999,-37.559998,-17.58,151.07812,-19.328123,2.796875,-0.032509,-0.052298,0.275569,56,0,0
-1.153,1.397,8.107,-14.58,-39.12,-17.46,154.20312,-8.734375,-8.734375,-0.209085,0.26094,0.162494,56,0,0
0.251,2.072,7.195,-12.42,-40.14,-15.66,160.25,-15.453125,1.515625,-0.307603,0.14632,-0.26077,56,0,0
-0.335,2.3,10.419,-11.4,-40.739998,-15.599999,161.51562,-12.515625,-1.9375,0.055779,-0.209792,-0.4054,56,0,0
-0.433,3.621,9.138,-9.96,-40.14,-17.58,160.35938,-21.328123,-2.71875,0.172758,0.039609,-0.28529,56,0,0
-1.35,2.68,10.895,-9.42,-40.44,-17.52,161.23438,-14.84375,-5.828125,0.333806,0.11196,-0.147754,56,0,0
-0.679,3.37,10.529,-8.88,-40.44,-17.88,161.62498,-16.625,-4.9375,-0.121505,0.318604,-0.146998,56,0,0
-1.455,0.509,11.609,-9.36,-40.26,-17.58,165.48438,-2.828125,-6.453125,-0.103912,0.043014,-0.195978,55,0,0
-0.083,3.41,6.06,-10.679999,-40.5,-16.08,158.64062,-30.90625,-0.453125,-0.102025,-0.090062,-0.13463,55,0,0
-1.211,1.993,8.693,-12.96,-41.16,-13.5,158.87502,-12.5,-7.1875,0.35761,0.10018,0.237189,55,0,0
-0.368,2.422,9.182,-13.86,-40.2,-14.4,157.10938,-13.953125,-2.890625,-0.194258,0.218497,0.194694,56,0,0
1.101,3.623,9.081,-15.96,-38.52,-16.92,157,-21.546877,6.625,0.151233,-0.345038,0.202433,56,0,0
-0.126,2.589,10.137,-18,-37.26,-17.76,151.54688,-14.5,0,0.267862,-0.450916,0.327821,56,0,0
-0.095,2.25,10.426,-17.16,-37.86,-17.52,149.25,-13.640625,-0.75,0.012909,0.13727,0.482667,54,0,0
-0.775,0.981,9.873,-14.58,-37.92,-17.58,154.07812,-4.765625,-5.9375,-0.483966,0.365025,0.189388,54,0,0
-0.292,2.295,6.379,-12.599999,-38.64,-16.92,156.76562,-18.265623,-3.046875,-0.478427,0.188474,-0.236108,54,0,0
-0.605,2.563,8.921,-11.16,-39.719997,-15.78,158.65625,-14.515625,-4.515625,0.183289,-0.081713,-0.269337,54,0,0
-0.588,4.028,8.569,-10.559999,-39.719997,-16.92,157.82812,-25.296877,-3.640625,0.461808,-0.03359,-0.181113,56,0,0
-0.947,3.008,11.063,-11.5199995,-39.12,-18,158.01562,-16.078125,-4.234375,0.579322,-0.026222,-0.058549,56,0,0
-0.782,3.549,10.505,-11.759999,-38.1,-18.6,156.65625,-17.5625,-4.875,-0.237093,0.168696,-0.076011,56,0,0
-2.74,0.124,10.438,-11.5199995,-37.86,-19.5,158.40625,-0.203125,-14.328125,-0.468316,0.126025,-0.052694,56,0,0
-0.366,2.628,7.432,-13.0199995,-37.86,-18.72,152.95312,-21.03125,-2.828125,-0.335277,0.320624,0.069105,56,0,0
-1.397,1.266,9.591,-14.82,-37.86,-18.18,154.73438,-7.015625,-8.140625,0.001675,0.066389,0.210213,56,0,0
0.299,2.503,9.167,-16.68,-36.84,-18.779999,152.96875,-14.359375,1.140625,-0.271766,1.13E-04,0.178229,56,0,0
0.189,2.97,9.076,-18.3,-35.219997,-19.32,149.26562,-18.09375,1.40625,0.20821,-0.358632,0.307756,56,0,0
-0.445,2.903,10.524,-18.779999,-34.92,-18.6,146.76562,-14.875,-2.578125,0.284195,-0.223104,0.435533,56,0,0
-1.371,0.208,12.102,-18.6,-35.46,-18.06,149.01562,-1.234375,-5.890625,-0.248972,0.049698,0.2199,56,0,0
0.596,1.946,8.337,-16.619999,-36.42,-18.119999,152.34375,-12.546875,3.953125,-0.540766,0.10393,-0.011569,57,0,0
0.169,1.914,8.514,-15.48,-37.62,-17.279999,155,-13.84375,1.65625,0.231128,-0.415967,-0.24441,57,0,0
0.019,3.207,8.964,-14.46,-37.44,-17.699999,154.15625,-19.125,0.25,0.24677,-0.191574,-0.250859,57,0,0
-0.454,3.81,9.579,-13.62,-37.559998,-18.06,152.75,-22.59375,-1.84375,0.416523,0.044529,-0.100613,56,0,0
-1.256,3.88,10.017,-13.38,-38.34,-17.52,154.17188,-17.65625,-6.921875,0.27971,0.193682,-0.046485,56,0,0
-2.381,0.622,13.078,-13.62,-38.399998,-17.1,157.15625,-3.140625,-8.875,0.060506,0.093813,-0.127654,56,0,0
-0.201,1.697,10.084,-13.5,-38.34,-16.98,154.90625,-13.375,-1.65625,-0.37027,0.140407,-0.192334,56,0,0
0.849,2.285,6.896,-13.92,-39.36,-15.66,159.87502,-16.296875,5.65625,-0.372317,-0.148982,-0.231262,56,0,0
0.38,2.941,8.76,-14.5199995,-39.54,-14.88,157.42188,-17.5,2.1875,0.093942,-0.411084,-0.151869,56,0,0
0.335,3.147,9.452,-14.219999,-39.239998,-14.7,157.90625,-19.21875,2.296875,0.529235,-0.356074,0.011967,56,0,0
-0.035,3.633,9.768,-14.219999,-39.36,-14.7,157.14062,-18.828123,0.84375,0.29055,-0.184037,0.003053,56,0,0
-1.665,1.136,10.034,-13.5,-39.66,-14.099999,155.45312,-7.71875,-8.8125,0.163225,0.150579,0.054702,56,0,0
1.041,2.51,8.827,-12,-40.2,-14.28,160.60938,-16.015625,5.265625,-0.347685,0.32162,-0.123283,56,0,0
-0.083,1.141,10.527,-11.88,-40.02,-15.66,162.90625,-5.828125,-0.8125,-0.331373,-0.287024,-0.319806,56,0,0
0.629,2.671,9.916,-12,-38.52,-18.18,162.37502,-14.703125,3.296875,-0.371352,-0.252526,-0.261392,56,0,0
0.241,3.195,9.421,-11.82,-37.92,-19.199999,160.37502,-19.21875,1.90625,0.272377,-0.188334,-0.029901,56,0,0
-0.694,2.312,10.601,-11.7,-37.92,-18.72,158.54688,-11.828125,-5.015625,0.056395,0.2757,0.14262,58,0,0
-0.756,0.696,11.053,-12.96,-38.1,-18.779999,161.35938,-3.546875,-2.65625,-0.27919,0.079698,-0.017302,58,0,0
0.131,2.711,8.013,-14.88,-37.559998,-17.82,155.32812,-19.359377,0.078125,-0.237779,-0.016698,0.039736,58,0,0
-0.55,1.299,8.952,-16.56,-36.54,-17.1,153.21875,-7.125,-4.421875,0.056574,0.133985,0.349462,58,0,0
-0.325,2.005,9.66,-17.22,-35.52,-17.4,151,-11.75,-1.671875,-0.072386,0.147649,0.367615,58,0,0
0.888,2.692,9.928,-18.6,-35.219997,-18.119999,150.54688,-14.9375,4.765625,0.0444,0.041035,0.343723,58,0,0
0.497,3.274,11.987,-20.76,-34.62,-17.88,148.23438,-14.390625,2.4375,0.160954,-0.283798,0.295957,58,0,0
-0.667,0.459,9.981,-21.6,-34.2,-16.98,146.92188,-2.828125,-3.359375,0.108705,-0.1871,0.358121,59,0,0
1.072,1.424,9.052,-20.88,-34.739998,-15.96,147.79688,-9.734375,6.984375,-0.264235,0.011734,0.214782,59,0,0
0.258,2.582,9.153,-20.52,-36.42,-15.599999,148.46875,-14.96875,1.53125,-0.191395,-0.029554,0.076428,59,0,0
0.476,3.561,9.356,-20.22,-36.059998,-16.619999,144.89062,-21.140623,2.609375,0.497805,0.141404,0.13341,61,0,0
-0.459,2.81,10.014,-19.5,-36.12,-16.08,145.46875,-16.125,-2.015625,0.546854,0.160481,0.157171,61,0,0
-0.572,3.138,9.797,-19.02,-36.239998,-15.48,147.54688,-14.5625,-5.6875,-0.059941,0.273387,-0.050957,61,0,0
-0.505,1.407,10.486,-21.48,-35.219997,-14.759999,147.73438,-8.390625,-1.09375,0.069964,-0.088007,-0.072152,62,0,0
0.488,3.461,7.381,-24.06,-33.54,-14.46,138.09375,-26.75,3.1875,0.135145,-0.128609,0.199827,62,0,0
-0.126,2.017,9.95,-25.8,-32.52,-12.66,138.76562,-10.71875,-1.140625,0.073862,0.187752,0.480061,62,0,0
0.579,3.205,9.17,-26.099998,-32.34,-13.799999,136.34375,-19.03125,3.5,-0.235308,0.225443,0.355659,62,0,0
0.84,3.521,9.45,-27.06,-30.84,-15.12,133.84375,-21.328123,5.75,0.301859,-0.111609,0.400669,63,0,0
-0.675,2.594,11.927,-27.3,-30.72,-15.96,133.65625,-11.890625,-2.046875,0.070153,-0.056022,0.340892,63,0,0
-0.933,0.818,9.959,-25.98,-30.119999,-18.18,135.14062,-5.75,-3.71875,-0.38169,0.214879,0.130168,63,0,0
0.603,1.855,7.764,-24.779999,-30.42,-18.779999,135.39062,-13.296875,2.265625,-0.518818,0.311883,0.063472,80,0,0
-0.538,1.73,9.675,-24.18,-30.9,-18.72,138.64062,-9.421875,-2.65625,-0.239859,0.054683,-0.123202,80,0,0
-0.849,3.224,8.842,-23.46,-31.92,-19.619999,134.0625,-19.546877,-5.15625,0.088282,0.29732,-0.022684,80,0,0
-1.199,3.396,9.234,-23.46,-32.34,-18.119999,132.79688,-19.953123,-7.4375,0.467555,0.362248,0.177676,121,0,0
-0.993,2.652,11.379,-24,-31.74,-18.119999,136.54688,-12.609375,-3.6875,0.229965,0.062415,0.019788,121,0,0
0.155,0.959,11.228,-25.32,-31.14,-17.82,138.6875,-8.453125,5.203125,-0.098804,-0.478782,-0.169681,121,0,0
0.155,3.717,5.897,-27.06,-30.06,-17.58,124.46875,-32.328125,-0.609375,-0.276348,-0.119276,0.022065,127,0,0
-0.943,0.71,10.493,-27.72,-29.46,-17.16,132.28125,-3.6875,-5.75,-0.019805,0.174502,0.282814,127,0,0
-0.56,2.104,9.249,-27.42,-29.039999,-18.359999,132.26562,-11.359375,-4.09375,-0.48359,0.150791,0.047905,127,0,0
0.732,3.169,8.763,-27.599998,-27.66,-19.26,127.40625,-20.34375,5.015625,0.293724,-0.129396,0.303232,127,0,0
0.22,3.286,10.958,-29.46,-27,-18.6,126.296875,-16.5625,0.75,0.381691,-0.189305,0.37567,128,0,0
-0.093,2.58,10.914,-29.82,-27.06,-18.42,124.828125,-14.765625,-1.3125,0.089349,0.047937,0.342069,128,0,0
-0.531,1.63,7.831,-29.22,-27.96,-17.4,129.17188,-10.75,-4.484375,-0.334886,0.215402,0.03603,128,0,0
1.211,1.977,7.609,-28.26,-29.16,-15.9,131.875,-15.28125,9.75,-0.151292,-0.138596,-0.100011,125,0,0
-0.658,2.846,9.55,-27.72,-28.8,-16.92,130.76562,-15.78125,-3.53125,0.075063,-0.295631,-0.176707,125,0,0
-0.478,3.734,9.38,-27.18,-28.56,-19.199999,124.765625,-22.078123,-2.265625,0.376807,0.26735,0.090871,125,0,0
-0.799,2.723,11.774,-25.68,-29.099998,-19.08,129.4375,-13.703125,-3.359375,0.36519,0.269746,0.167765,96,0,0
1.005,4.078,9.162,-25.619999,-28.8,-19.98,128.64062,-23.484377,3.75,-0.119128,0.198759,-0.155004,96,0,0
-1.938,1.122,7.197,-27.359999,-28.439999,-19.02,131.75,-5.609375,-15.984375,-0.255714,0.057979,-0.186621,96,0,0
-1.163,0.428,10.175,-28.619999,-27.72,-18.119999,129.79688,-3.25,-5.09375,-0.358032,0.219619,-0.074492,96,0,0
-0.483,1.735,7.283,-28.8,-27.359999,-19.02,129.35938,-11.71875,-4.625,-0.460966,0.192897,-0.048652,61,0,0
0.931,3.415,9.466,-29.519999,-25.199999,-20.4,123.93751,-18.703123,4.65625,0.125709,-0.155731,0.235752,61,0,0
0.739,2.508,11.752,-32.16,-21.9,-21.359999,117.81249,-12.953125,3.671875,0.496575,-0.479633,0.630256,61,0,0
0.679,2.106,11.151,-32.219997,-22.56,-20.279999,118.96875,-11.4375,3.859375,-0.109406,-0.094238,0.463058,65,0,0
-0.868,1.543,8.042,-31.199999,-24.24,-19.8,122.828125,-9.046875,-7.4375,-0.526833,0.207875,0.092319,65,0,0
-0.806,0.66,8.597,-29.699999,-26.099998,-19.02,125.68751,-4.28125,-4.09375,-0.274175,0.162636,-0.103579,65,0,0
-0.809,2.582,9.284,-28.019999,-26.099998,-21.119999,124.984375,-15.4375,-4.390625,0.055923,0.003795,-0.259135,67,0,0
-0.806,3.643,9.196,-28.019999,-26.099998,-21.42,119.71875,-21.75,-4.390625,0.495326,0.164203,0.093607,67,0,0
-1.335,1.249,12.111,-27.9,-26.76,-20.82,126.171875,-6.3125,-6.109375,0.187109,0.167861,-0.010267,67,0,0
1.931,3.578,9.514,-28.56,-26.64,-21.359999,122.828125,-22.84375,10.5,-0.036185,-0.056092,-0.160552,67,0,0
-1.378,1.536,6.508,-29.519999,-25.92,-20.82,126.53125,-10.40625,-12.171875,-0.138255,-0.049451,-0.126442,78,0,0
-1.91,0.428,9.533,-30,-25.92,-19.619999,125.75,-2.484375,-11.15625,-0.381959,0.435837,-0.09577,78,0,0
-0.847,2.393,8.669,-30.179998,-26.039999,-19.8,123.09375,-15.640625,-5.40625,-0.179205,0.25713,-0.027945,78,0,0
0.332,2.585,10.297,-30.359999,-23.939999,-21.779999,121.625,-14.28125,1.203125,0.355183,-0.235543,0.24546,72,0,0
0.442,2.661,11.841,-31.859999,-22.02,-22.38,118.546875,-13.203125,2.4375,0.178726,-0.457223,0.335818,72,0,0
0.732,2.329,10.606,-31.619999,-22.14,-22.56,115.890625,-13.671875,3.5,0.064276,-0.217276,0.389389,72,0,0
-1.271,1.249,8.045,-31.38,-23.76,-21.119999,120.515625,-9.21875,-9.8125,-0.187584,0.17606,0.144367,59,0,0
-0.457,1.965,8.052,-29.58,-25.5,-21.3,124.859375,-10.71875,-3.5,-0.362844,0.243146,-0.247558,59,0,0
-0.418,3.25,9.277,-28.859999,-25.439999,-21.06,119.96875,-19.296877,-2.375,0.343947,-0.098813,-0.071838,59,0,0
-1.026,3.571,9.605,-28.98,-26.34,-19.68,120.078125,-20.40625,-5.625,0.655812,-0.024405,0.168775,59,0,0
-1.067,2.477,11.771,-29.519999,-26.699999,-20.4,124.21875,-11.828125,-4.0625,0.210809,0.095954,-0.096609,63,0,0
0.057,1.493,12.245,-30.359999,-25.439999,-19.92,125.21875,-8.109375,2.234375,-0.116172,-0.272129,-0.201932,63,0,0
0.27,2.759,7.257,-31.38,-24.42,-18.96,116.56249,-24.890623,-0.109375,-0.261695,-0.152338,-0.089936,63,0,0
-1.002,1.445,8.633,-32.82,-24,-17.52,122.56249,-7.546875,-6.703125,-0.275635,0.162744,0.041802,62,0,0
-0.38,2.858,8.909,-33.12,-23.519999,-18.9,116.640625,-18.5,-2.625,-0.133726,0.136301,0.117736,62,0,0
-0.189,2.819,9.485,-33.96,-21.96,-20.16,115.31249,-16.390625,-1.03125,0.324131,0.027732,0.385746,62,0,0
-0.366,2.297,10.836,-34.079998,-21.119999,-20.22,115.84375,-11.15625,-0.890625,0.033857,-0.173812,0.313233,62,0,0
-0.179,1.23,11.094,-33.48,-21.72,-20.22,117.796875,-6.5625,-0.28125,-0.07597,-0.118317,0.196052,62,0,0
0.354,1.479,9.22,-33.12,-23.039999,-20.279999,118.03125,-10.4375,2.796875,-0.260111,-0.0441,-0.079275,62,0,0
-0.332,2.807,8.878,-31.38,-24.42,-19.859999,119.859375,-16.6875,-1.875,-0.167384,0.037383,-0.217993,62,0,0
-1.086,3.308,9.052,-30.9,-24.42,-19.859999,117.81249,-19.84375,-6.59375,0.219239,0.15162,-0.090645,62,0,0
-1.227,2.92,11.01,-30.9,-25.26,-18.72,118.59375,-15.609375,-6.328125,0.442709,0.29921,0.05665,62,0,0
-0.009,4.354,9.861,-30.119999,-25.859999,-18.66,120.203125,-23.5625,-1.234375,0.074603,0.149444,-0.182869,62,0,0
-2.027,1.141,8.602,-31.32,-25.439999,-17.76,125.125,-5.578125,-13.71875,-0.12715,-0.080681,-0.265756,62,0,0
-0.667,1.948,8.681,-32.579998,-25.199999,-16.199999,120.921875,-12.953125,-3.609375,-0.188733,0.051129,-0.199112,62,0,0
-0.888,3.023,8.121,-33.719997,-23.64,-16.26,117.875,-20.1875,-6.03125,0.094758,0.008516,0.095136,62,0,0
-0.114,3.205,8.825,-34.5,-22.14,-17.16,114.140625,-20.1875,-0.75,0.304949,0.102242,0.3909,62,0,0
-0.32,2.508,10.773,-34.32,-20.939999,-18.48,113.75,-13.4375,-0.84375,0.140609,-0.231569,0.411708,62,0,0
-0.303,1.036,11.446,-33.719997,-20.22,-18.66,115.21875,-7.09375,0.671875,-0.177412,-0.14034,0.222908,62,0,0
0.349,1.828,9.464,-33.48,-19.619999,-20.16,114.890625,-11.3125,0.984375,-0.43857,0.087866,0.004073,60,0,0
0.136,1.649,9.256,-33.78,-19.92,-20.4,115.703125,-9.75,1.265625,-0.281054,-0.078171,0.02896,60,0,0
-0.167,3.015,9.138,-33.66,-18.84,-21.6,110.921875,-17.421877,-1.0625,-0.044034,-0.151727,0.123919,60,0,0
-0.751,3.736,9.689,-33.66,-18.42,-21.779999,105.28125,-21.546877,-4,0.5005,0.154956,0.51673,60,0,0
-1.658,3.322,11.738,-32.76,-18.42,-21.6,110.828125,-13.890625,-7.40625,0.279698,0.246596,0.334796,60,0,0
-2.491,0.715,10.546,-33.3,-18.24,-21.359999,110.421875,-5.46875,-8.421875,0.062098,0.001128,0.103333,60,0,0
-0.435,1.905,8.583,-34.02,-18.96,-20.4,108.171875,-16.453125,-1.09375,-0.146481,0.100026,-0.075223,60,0,0
-0.694,2.35,7.664,-33.899998,-20.76,-18.66,114.703125,-15.03125,-5.046875,-0.237496,0.242131,-0.182333,60,0,0
-0.799,3.157,8.758,-33.42,-20.1,-19.38,109.890625,-19.796877,-5.265625,0.222641,-0.037,-0.06447,60,0,0
0.327,3.09,10.225,-34.2,-19.14,-20.46,110.015625,-16.65625,1.703125,0.365829,-0.16219,0.131177,60,0,0
0.019,4.559,10.165,-34.68,-18.539999,-20.279999,107.703125,-23.578123,-0.484375,0.050092,-0.276411,0.12971,59,0,0
-0.315,0.921,11.092,-33.96,-18,-20.52,112.296875,-4.234375,-2.0625,0.062185,-0.160458,0.188016,59,0,0
1.062,2.68,7.183,-33.78,-18.84,-20.4,108.015625,-20.515623,8.390625,-0.309489,-0.233529,-0.084791,59,0,0
-0.406,2.831,9.794,-33.18,-20.52,-20.16,112.171875,-15.890625,-2.015625,0.145906,-0.305552,0.097354,59,0,0
-0.615,4.746,8.167,-32.28,-21.119999,-21,107.96875,-28.75,-3.953125,0.158591,0.269514,-0.101386,58,0,0
-1.352,4.143,10.941,-32.28,-22.02,-21.06,109.328125,-20.96875,-7.71875,0.521054,0.594601,0.089614,58,0,0
-0.895,3.702,10.271,-31.199999,-22.02,-22.32,114.5,-18.5625,-5.15625,-0.081269,0.300004,-0.271669,58,0,0
-1.302,2.156,7.556,-32.7,-21.119999,-21.72,114.375,-14.515625,-10.203125,-0.267471,0.076797,-0.288265,58,0,0
-1.146,1.175,9.318,-34.02,-19.32,-20.46,113.18751,-7.828125,-5.796875,-0.265659,-0.006196,-0.09572,58,0,0
-0.222,3.169,7.202,-34.26,-18.84,-21,109.765625,-22.859377,-2.125,-0.415486,0.010582,-0.054868,58,0,0
0.409,3.552,9.639,-34.5,-16.5,-22.859999,104.78125,-19.625,2.4375,0.301703,-0.179285,0.468407,58,0,0
0.56,2.869,12.25,-35.7,-14.759999,-23.519999,101.859375,-14.875,4.234375,0.157442,-0.341533,0.566157,58,0,0
0.576,1.448,12.473,-37.079998,-14.04,-22.56,105.578125,-7.15625,4.421875,-0.342531,-0.253861,0.239816,58,0,0
1.242,1.687,8.614,-36.36,-15.36,-22.26,104.921875,-11.75,6.03125,-0.45634,0.042046,0.023812,58,0,0
-0.031,2.376,7.539,-35.28,-17.22,-21.9,108.515625,-16.03125,-0.1875,-0.134115,-0.043153,-0.019781,56,0,0
-0.811,3.813,9.012,-34.26,-16.92,-24,101.90625,-23.046877,-4.765625,0.483714,0.196879,0.139412,56,0,0
-0.84,3.623,10.824,-33.899998,-17.52,-24,103.56249,-18.59375,-5.234375,0.453755,0.416259,0.187739,56,0,0
0.107,3.602,11.056,-34.26,-17.1,-23.58,108.515625,-15.375,-2.71875,-0.135157,0.124787,-0.201281,58,0,0
-2.199,1.235,7.8,-35.16,-15.839999,-23.88,108.25,-6.921875,-15.953125,-0.303818,-0.075356,-0.250087,58,0,0
-0.373,1.737,9.045,-36.42,-16.619999,-21.359999,102.21875,-12.4375,-0.78125,0.037245,0.091167,0.116143,58,0,0
-0.837,1.768,8.346,-36.3,-17.76,-19.98,111.68751,-10.203125,-6.8125,-0.385161,0.089057,-0.260744,58,0,0
0.189,3.032,9.033,-35.7,-17.34,-21.42,106.59375,-17.796877,0.078125,-0.290374,0.119556,-0.310929,58,0,0
0.562,3.449,10.565,-36.059998,-14.82,-23.58,100.984375,-18.203123,2.765625,0.456905,-0.250627,0.303364,58,0,0
0.098,2.771,11.678,-37.2,-12.599999,-24,99.78125,-13.703125,0.453125,0.117664,-0.181139,0.412954,56,0,0
-0.971,2.283,6.836,-37.2,-13.44,-22.92,102.265625,-16.65625,-7.71875,-0.324764,0.140912,0.138715,56,0,0
-0.725,1.541,8.669,-36.36,-16.56,-21.66,107.78125,-9.046875,-3.96875,-0.248593,0.112712,-0.024523,56,0,0
-0.904,3.24,7.973,-35.7,-16.56,-22.8,103.140625,-22.34375,-6.59375,0.092394,0.046779,-0.202838,56,0,0
-0.909,3.781,10.074,-34.98,-16.5,-22.92,102.921875,-20.28125,-5.1875,0.42414,0.281814,0.07616,56,0,0
-0.797,2.676,11.628,-34.62,-15.66,-23.82,104.328125,-12.8125,-3.109375,0.264942,0.080324,0.069728,56,0,0
-0.409,1.665,11.448,-35.52,-14.82,-23.519999,100.796875,-10.125,1.203125,0.064159,-0.286126,0.182916,56,0,0
0.593,4.684,6.321,-37.079998,-14.099999,-22.38,88.125,-37.546875,2.734375,0.109099,0.015686,0.216972,58,0,0
-1.723,0.442,10.646,-36.66,-13.62,-22.32,105.953125,-1.8125,-9.921875,-0.064118,0.206487,0.044216,58,0,0
-0.299,3.406,7.975,-36.78,-13.74,-22.8,98.703125,-22.65625,-1.796875,-0.436119,0.086177,-0.188225,58,0,0
0.49,4.023,9.591,-36.6,-11.94,-23.699999,92.96875,-23.453123,2.796875,0.567109,-0.093141,0.55963,56,0,0
-0.217,2.977,12.422,-36.78,-11.94,-23.46,98.625,-12.640625,-0.5625,0.005897,-0.218032,0.26056,56,0,0
-1.266,1.412,8.76,-36.719997,-12.719999,-23.519999,102.078125,-8.53125,-7.515625,-0.243476,-0.170419,0.008788,56,0,0
0.27,1.946,6.929,-35.88,-15.36,-22.68,99.21875,-17.265623,2.296875,-0.093465,0.112992,-0.150536,56,0,0
-0.414,3.152,9.411,-34.92,-17.52,-22.56,107.015625,-17.890623,-1.796875,-0.005115,-0.091466,-0.332155,56,0,0
-0.785,4.112,8.662,-34.68,-16.619999,-24.48,99.75,-25.296877,-4.59375,0.34646,0.094902,-0.119052,56,0,0
-0.394,3.71,10.972,-35.28,-16.859999,-23.76,101.109375,-19.65625,-2.1875,0.478288,0.255707,0.158125,56,0,0
0.744,4.512,9.787,-35.1,-16.5,-24.18,102.75,-24.203123,1.984375,-0.062302,-0.013633,-0.123304,56,0,0
-2.003,1.879,7.178,-36,-15.96,-23.58,106.68751,-11.296875,-15.84375,-0.154096,-0.283579,-0.081629,56,0,0
-1.005,1.728,9.117,-36.78,-16.199999,-21.9,102.359375,-12.484375,-4.671875,0.099546,0.17351,0.100449,56,0,0
-0.277,2.589,8.7,-37.2,-15.96,-21.119999,107.953125,-14.796875,-2.46875,-0.447303,-0.004404,-0.325024,56,0,0
1.141,4.083,8.667,-37.02,-14.4,-22.26,97.765625,-24.546877,6.640625,0.004822,-0.225492,0.022779,56,0,0
0.459,3.121,11.396,-38.399998,-11.94,-22.56,96.31249,-15.453125,2.515625,0.42243,-0.394228,0.607858,56,0,0
0.689,2.834,11.295,-38.579998,-12,-22.32,96.046875,-15.78125,3.25,-0.018161,-0.110236,0.351332,56,0,0
-0.61,1.723,8.337,-37.92,-13.86,-22.859999,104.359375,-10.640625,-5.796875,-0.501055,0.240179,-0.148806,56,0,0
0.366,1.886,8.068,-37.8,-16.32,-22.5,104.125,-13.640625,3.8125,-0.375879,0.009967,-0.368868,56,0,0
-0.193,3.274,8.638,-36.36,-15.299999,-23.58,102.34375,-19.953123,-1.09375,0.085896,-0.270853,-0.160499,56,0,0
-0.126,3.6,10.534,-36.66,-15.059999,-23.1,97.578125,-19.421877,0,0.449621,0.044243,0.159908,56,0,0
0.179,3.212,11.403,-36.48,-15.96,-22.38,103.18751,-15.609375,0.875,0.193318,0.052416,0.104369,56,0,0
1.773,3.813,9.876,-36.3,-15.839999,-22.38,98.203125,-22.90625,10.125,0.131902,-0.089598,0.016873,56,0,0
-0.461,3.099,6.824,-37.32,-15.599999,-21.779999,103.984375,-22.203123,-6.921875,0.01064,0.223799,-0.104065,56,0,0
-1.204,1.373,9.33,-37.62,-16.44,-20.4,106.171875,-8.34375,-7.265625,-0.178226,0.289404,-0.209378,56,0,0
-0.363,3.274,8.054,-37.5,-15.66,-21,102.71875,-21.921877,-1.984375,-0.147195,0.074854,-0.164777,56,0,0
0.72,3.906,9.138,-38.1,-14.639999,-22.199999,99.203125,-22.859377,3.640625,0.309376,-0.117783,0.198397,56,0,0
-0.33,3.461,12.36,-38.76,-13.139999,-22.199999,100.484375,-14.125,-1.5625,0.030403,-0.331048,0.276758,56,0,0
-0.421,1.414,10.481,-37.98,-13.259999,-22.38,102.359375,-7.96875,-1.375,-0.234119,-0.22467,0.119168,56,0,0
1.101,1.531,7.762,-37.079998,-14.7,-21.72,103.78125,-11.46875,8.9375,-0.345617,-0.113896,-0.090613,56,0,0
0.433,3.284,7.489,-36.36,-15.839999,-22.02,102.140625,-23.203123,2.609375,-0.032021,-0.193253,-0.116657,56,0,0
-0.148,3.978,9.438,-36.36,-16.8,-21.66,100.234375,-22.71875,-0.484375,0.553925,0.154604,0.139509,56,0,0
-0.174,2.956,11.685,-36.48,-17.34,-21.359999,104.484375,-14.796875,-0.984375,0.270132,0.225722,-0.086437,56,0,0
0.866,4.77,7.662,-36.899998,-16.26,-21.96,99.625,-29.265623,3.609375,-0.156551,0.015401,-0.247113,56,0,0
-0.576,2.671,8.384,-37.5,-14.759999,-21.9,97.96875,-17.796877,-3.8125,0.41123,-0.042023,0.324797,56,0,0
-0.837,1.766,9.464,-37.86,-15.42,-20.76,103.75,-11.296875,-4.140625,-0.181806,0.206339,-0.046352,56,0,0
0.428,3.722,7.97,-37.559998,-15.96,-21.72,103.71875,-23.546877,2.578125,-0.477383,0.235517,-0.302987,56,0,0
-0.062,3.748,9.172,-37.02,-14.4,-23.22,98.90625,-21.0625,-0.5625,0.144006,0.006403,0.091003,56,0,0
0.107,2.867,12.118,-38.28,-13.5,-23.22,98.859375,-13.09375,2.09375,0.12206,-0.187067,0.253707,56,0,0
-0.684,1.393,9.878,-37.98,-13.5,-23.76,100.90625,-9.5625,-1.234375,-0.118584,-0.166301,0.149418,56,0,0
1.299,1.5,7.82,-36.36,-14.82,-23.1,104.484375,-11.125,9.109375,-0.396073,-0.035167,-0.144223,56,0,0
0.201,3.178,8.375,-35.579998,-16.8,-22.619999,104.703125,-19.8125,1.421875,-0.231423,-0.154863,-0.267185,56,0,0
-0.823,3.6,9.933,-35.46,-16.8,-23.22,101.578125,-20.171877,-4.03125,0.429228,0.152754,0.041199,56,0,0
-0.995,2.731,11.376,-35.219997,-17.16,-22.859999,105.09375,-13.984375,-5.265625,0.244746,0.362663,-0.06305,56,0,0
1.598,3.219,11.204,-35.7,-16.56,-23.16,103.921875,-17.734377,9.078125,-0.068922,-0.185544,-0.147643,56,0,0
-0.172,3.753,4.801,-37.079998,-15.12,-21.9,95.640625,-35.6875,-3.328125,-0.092144,-0.085251,-0.11223,56,0,0
-1.263,0.6,10.972,-38.399998,-14.639999,-20.46,105.859375,-3.015625,-6.640625,0.058673,0.131844,0.179545,56,0,0
-0.631,3.106,8.758,-38.579998,-13.74,-21.72,101.859375,-19.03125,-4.234375,-0.469484,0.105636,-0.157275,56,0,0
0.196,3.284,8.696,-37.079998,-12,-24.06,94.59375,-21.328123,2.046875,0.39068,0.056292,0.431483,56,0,0
-0.162,3.444,11.367,-37.2,-11.759999,-24.3,96.546875,-16.546875,0,0.15569,-0.08199,0.418162,56,0,0
-0.818,0.818,11.482,-37.38,-11.4,-24.119999,98.96875,-5.578125,-2.34375,-0.124996,-0.023046,0.163081,56,0,0
0.631,2.221,7.235,-36.42,-13.62,-23.519999,99.78125,-17.765623,1.90625,-0.443061,0.143601,-0.195188,56,0,0
0.009,2.068,8.7,-36.36,-16.44,-22.08,105.671875,-13.0625,-0.171875,-0.018838,-0.084662,-0.231961,56,0,0
0.031,4.389,7.966,-35.28,-16.199999,-23.58,100.71875,-26.65625,-1.375,0.298921,-0.132659,-0.14927,55,0,0
-0.978,3.896,9.77,-35.76,-16.199999,-23.22,96.40625,-22.5625,-4.9375,0.766496,0.016085,0.33274,55,0,0
-1.002,3.935,11.872,-35.82,-15.96,-22.68,104.859375,-16.71875,-5.40625,-0.056523,0.127813,-0.212462,55,0,0
-2.616,1.306,9.921,-35.7,-15.66,-22.859999,104.890625,-7.859375,-12.09375,-0.106364,-0.096023,-0.136682,56,0,0
-0.141,2.929,7.769,-36.719997,-15.54,-21.72,95.796875,-24.890623,-0.3125,0.007381,0.249169,-0.051138,56,0,0
-1.017,2.613,9.024,-37.559998,-15.54,-20.699999,106.453125,-14.421875,-6.53125,-0.186276,0.203021,-0.186378,56,0,0
-0.059,3.348,9.517,-37.2,-13.86,-22.08,99.46875,-19.28125,-0.78125,-0.232647,0.007705,-0.14607,56,0,0
0.691,3.442,10.115,-37.5,-12.66,-22.8,95.671875,-19.53125,3.6875,0.271363,-0.164531,0.428492,56,0,0
0.684,4.026,10.086,-37.8,-13.32,-21.66,98.109375,-21.625,2.9375,-0.02323,-0.239917,0.2613,56,0,0
-1.364,2.022,8.846,-36.36,-13.92,-22.199999,104.015625,-11.625,-9.75,-0.337886,0.018106,-0.1182,56,0,0
-0.423,2.367,7.422,-35.76,-16.199999,-22.02,104.40625,-17.171877,-3.640625,-0.36512,0.22585,-0.373437,56,0,0
-0.617,2.767,10.247,-34.98,-16.56,-22.32,105.328125,-15.046875,-2.484375,0.040227,-0.091765,-0.236012,56,0,0
-0.481,4.612,8.748,-34.98,-15.24,-23.22,96.421875,-28.078123,-2.15625,0.309864,-0.064881,0.05347,56,0,0
-0.062,3.331,11.578,-35.7,-15.36,-23.279999,100.625,-16.34375,-0.53125,0.484621,0.138999,0.336138,56,0,0
1.153,3.758,10.036,-35.16,-14.94,-23.82,95.90625,-23.390623,6.078125,0.058402,0.050166,0.076655,56,0,0
-0.615,3.341,7.171,-35.76,-14.82,-22.68,101.96875,-24.828123,-6.140625,-0.202756,0.131251,-0.110864,56,0,0
-0.995,1.555,8.595,-36.059998,-15.9,-21.42,107.296875,-8.8125,-6.671875,-0.365638,0.110846,-0.271204,56,0,0
-0.093,3.714,7.506,-36.12,-15.24,-22.199999,98.453125,-26.4375,-0.671875,-0.074733,0.026895,-0.118993,56,0,0
0.318,4.217,8.818,-36.719997,-12.719999,-23.1,93.06249,-26.625,1.65625,0.61348,-0.125677,0.465872,56,0,0
-0.208,2.597,12.954,-37.38,-11.82,-22.8,99.734375,-10.40625,-0.171875,-0.176924,-0.266148,0.228271,56,0,0
-0.095,2.254,9.062,-36.6,-12.54,-22.38,95.140625,-17.0625,2.96875,-0.20902,-0.138565,0.132252,56,0,0
0.339,0.861,8.605,-35.1,-15.059999,-22.619999,106.40625,-6.3125,0.078125,-0.343038,0.070311,-0.171804,56,0,0
0.765,3.772,7.87,-34.68,-15.9,-22.26,102.43751,-24.09375,4.796875,-0.259806,-0.154085,-0.426379,56,0,0
-0.248,4.614,8.327,-35.52,-16.02,-22.32,94.515625,-29.671877,-1.09375,0.84259,-0.052742,0.380754,56,0,0
-1.199,3.334,10.785,-35.219997,-17.16,-21.6,101.18751,-18.15625,-6.078125,0.457087,0.372939,0.029658,56,0,0
1.036,2.762,12.267,-33.78,-17.46,-22.26,104.78125,-15.3125,6.453125,-0.134613,0.138257,-0.347326,56,0,0
-0.203,3.521,6.091,-34.32,-17.4,-22.68,98.796875,-31.609377,-5.234375,-0.264866,0.119681,-0.400138,56,0,0
-0.61,2.139,9.014,-35.399998,-16.44,-21.6,109.140625,-10.546875,-4.0625,-0.316,0.19838,-0.336146,56,0,0
0.098,3.15,8.219,-35.28,-15.719999,-21.6,102.40625,-21.359377,0,-0.179293,-0.150213,-0.060963,56,0,0
0.926,3.652,9.454,-36.18,-14.219999,-22.859999,99.046875,-21.15625,5.1875,0.307471,-0.219169,0.360992,56,0,0
0.023,3.767,11.144,-36.6,-13.799999,-22.68,101.53125,-16.328125,-1.515625,-0.031833,-0.281287,0.259969,56,0,0
-0.533,1.807,8.825,-36.3,-15.24,-21.96,102.984375,-10.96875,-2.9375,-0.027245,-0.0865,0.16633,56,0,0
0.715,1.582,8.887,-34.8,-16.92,-22.26,107.40625,-10.6875,5.578125,-0.123489,-0.005281,-0.140519,56,0,0
0.514,3.576,8.234,-34.559998,-18.3,-22.38,106.03125,-23.203123,3.390625,-0.198763,-0.193767,-0.367876,56,0,0
0.028,4.129,8.971,-34.62,-18.359999,-22.26,104.375,-23.78125,-0.390625,0.372224,0.043066,-0.004057,56,0,0
-1.333,2.905,11.254,-34.62,-18.3,-21.6,105.65625,-15.34375,-6.171875,0.372698,0.23338,0.058373,56,0,0
1.311,4.296,8.839,-35.16,-18.3,-22.08,105.25,-26.5,6.5625,-0.117218,0.201343,-0.238107,56,0,0
-0.22,2.64,5.933,-35.1,-16.8,-22.98,108.484375,-19.09375,-3.46875,-0.251495,-0.081268,-0.217511,56,0,0
-0.873,1.263,10.579,-36,-16.56,-22.38,106.53125,-7.328125,-4.5625,-0.046369,0.019495,0.093263,56,0,0
-0.744,2.98,8.092,-36.36,-15.66,-21.779999,106.34375,-18.828123,-4.90625,-0.430174,0.086534,-0.150125,56,0,0
0.22,3.659,8.858,-36.36,-14.94,-22.56,99.171875,-22.328123,1.28125,0.350777,0.095237,0.371957,56,0,0
0.112,3.154,11.776,-37.02,-14.639999,-22.619999,100.734375,-15.8125,0.53125,0.384048,0.027224,0.447834,56,0,0
0.203,2.475,10.201,-36.96,-14.759999,-22.199999,101.609375,-15.4375,0.875,-0.081641,-0.025557,0.093056,56,0,0
0.169,3.037,6.735,-37.02,-16.5,-22.26,104.046875,-22.8125,-0.1875,-0.272525,0.057985,-0.132452,56,0,0
-0.174,2.113,8.755,-36.18,-18,-22.38,105.109375,-14.25,-0.734375,-0.021289,0.017751,-0.154632,56,0,0
-0.172,3.13,8.521,-34.98,-17.1,-23.279999,105.296875,-19.09375,-1.375,0.047955,-0.179625,-0.142244,56,0,0
-0.54,4.507,9.296,-34.86,-16.859999,-23.46,98.453125,-26.3125,-2.125,0.409117,-0.005101,0.209201,56,0,0
-0.94,2.963,11.659,-34.8,-17.699999,-23.22,105.921875,-13.46875,-3.53125,0.156583,0.225104,0.040529,56,0,0
-0.478,1.795,11.611,-35.219997,-17.82,-23.1,106.203125,-10.203125,0.140625,-0.14498,-0.024201,-0.175236,56,0,0
0.545,4.638,6.599,-35.7,-17.1,-22.859999,91.421875,-39.375,2.15625,-0.007999,0.014143,-0.052536,56,0,0
-1.239,1.23,10.527,-36.6,-16.74,-21.779999,108.96875,-5.65625,-7.1875,-0.0118,0.06757,0.01973,56,0,0
-0.124,3.403,8.602,-36.6,-15.96,-21.9,102.546875,-21.421877,-0.421875,-0.375878,0.071399,-0.181054,56,0,0
0.502,4.018,9.33,-36.899998,-15,-22.619999,97.953125,-23.296877,2.828125,0.38051,-0.110443,0.398909,56,0,0
-0.524,3.612,10.591,-37.2,-14.94,-23.1,100.109375,-17.90625,-1.984375,0.247175,-0.183136,0.382802,56,0,0
-1.062,1.438,9.622,-36,-15.66,-23.82,105.015625,-8.0625,-6.703125,-0.278268,0.087118,-0.087737,56,0,0
-0.122,1.797,8.942,-35.1,-16.26,-24,104.09375,-12.234375,-0.171875,-0.298705,0.088705,-0.201336,56,0,0
-0.093,2.745,9.16,-34.26,-17.039999,-24.06,106.71875,-16.71875,0.34375,-0.188429,-0.069446,-0.236603,56,0,0
-0.663,3.877,8.846,-34.2,-16.32,-25.019999,101.34375,-23.421877,-3.75,0.046844,-0.023661,-0.080176,56,0,0
-1.282,3.087,10.63,-33.6,-16.92,-24.06,101.96875,-17.0625,-6.5,0.35867,0.252434,0.192674,56,0,0
0.476,4.744,8.966,-33.48,-16.8,-24.6,99.953125,-26.90625,1.140625,-0.061567,0.201834,-0.133845,56,0,0
-2.139,1.606,7.36,-34.8,-16.02,-24.6,108.390625,-7.015625,-18.765623,-0.145906,-0.07709,-0.137378,56,0,0
-1.302,1.285,10.127,-36,-16.02,-23.279999,102.453125,-8.84375,-5.9375,-0.006531,0.075925,0.036808,56,0,0
-0.198,3.051,8.037,-36.48,-15.9,-22.98,106.34375,-18.078123,-2.15625,-0.339606,-0.0197,-0.165835,56,0,0
0.591,3.667,8.521,-36.899998,-14.04,-24.66,97.625,-22.8125,2.859375,0.168673,-0.1427,0.21706,56,0,0
0.84,3.212,10.697,-36.48,-12.12,-24.48,94.84375,-16.96875,4.625,0.441965,-0.316008,0.662855,56,0,0
-0.256,2.235,10.788,-37.559998,-12.3,-23.4,98.15625,-12.8125,-1.34375,-0.095985,-0.128101,0.289671,56,0,0
0.002,2.187,8.873,-37.5,-13.92,-23.4,101.09375,-14.390625,-0.78125,-0.366188,0.188201,-0.118802,56,0,0
0.952,2.575,8.588,-37.26,-14.82,-23.519999,104.265625,-15.84375,5.859375,-0.283565,-0.149794,-0.279754,56,0,0
-0.289,3.315,8.588,-36.6,-14.219999,-24.06,98.609375,-20.9375,-1.875,0.186565,-0.217031,0.027729,56,0,0
-0.181,3.224,10.498,-36.48,-14.099999,-23.1,98.671875,-17.703123,-1.28125,0.431921,0.127009,0.209127,56,0,0
-0.54,3.346,10.977,-36.6,-14.4,-24.3,104.453125,-14.65625,-3.140625,-0.209709,0.081053,-0.178354,56,0,0
-1.515,2.228,9.505,-37.02,-13.0199995,-24.6,95.43751,-13.90625,-7.265625,0.087322,-0.119795,0.077218,56,0,0
-0.371,1.113,10.304,-37.26,-12.96,-22.859999,100.28125,-8.671875,0.078125,0.049385,0.13915,0.123392,56,0,0
0.244,2.599,6.627,-37.8,-13.92,-21.779999,102.78125,-19.984377,1.453125,-0.452841,0.119064,-0.268545,56,0,0
-0.411,2.896,9.335,-37.8,-13.799999,-22.08,100.203125,-16.5625,-3.15625,0.238645,-0.0953,0.113324,56,0,0
1.12,3.147,10.601,-38.16,-13.2,-21.6,97.671875,-17.25,5.71875,0.327998,-0.097274,0.188379,56,0,0
1.072,3.544,9.995,-38.1,-12.84,-21.3,98.18751,-19.78125,5.828125,0.063077,-0.297185,0.138065,56,0,0
-0.299,1.962,8.585,-38.46,-14.219999,-21.48,104,-12,-2.34375,-0.256675,-0.026731,-0.128193,56,0,0
1.168,2.048,8.612,-38.82,-14.82,-21.359999,106.140625,-11.921875,7.578125,-0.396296,-0.089993,-0.319348,56,0,0
-0.349,3.099,7.963,-38.399998,-14.219999,-21.66,98.125,-21.71875,-2.125,0.116024,-0.288267,-0.003562,56,0,0
-0.186,3.937,9.397,-37.5,-15,-21.48,98.5,-22.71875,-1.3125,0.507675,0.247749,0.222499,56,0,0
0.481,2.96,11.582,-37.86,-15.54,-21.72,103.31249,-13.8125,1.9375,0.092157,0.177231,-0.031687,56,0,0
1.486,2.975,10.338,-37.68,-14.5199995,-22.68,93.953125,-18.53125,10.828125,0.226572,-0.252296,0.129591,56,0,0
0.227,3.133,7.58,-37.98,-12.96,-22.98,98.68751,-23.265623,-0.3125,0.021838,0.09001,0.034338,58,0,0
-0.56,0.993,9.938,-38.16,-12.96,-22.68,104.921875,-4.515625,-4.8125,-0.588896,0.499814,-0.280408,58,0,0
0.43,3.633,8.109,-38.46,-12.3,-22.619999,94.84375,-24.515623,3.25,-0.33474,0.015582,-0.101388,58,0,0
0.852,3.918,9.213,-38.579998,-10.32,-24,89.75,-23.875,4.984375,0.617635,-0.153385,0.632582,56,0,0
-0.117,3.927,12.051,-39.18,-10.32,-23.82,93.765625,-17.609377,-1.203125,0.133486,-0.077794,0.41095,56,0,0
-1.646,0.062,10.522,-39,-11.04,-22.859999,101.140625,-0.5625,-8.0625,-0.45502,-0.022172,-0.111426,56,0,0
0.962,1.196,7.123,-38.46,-13.139999,-22.32,102.96875,-9.125,7.9375,-0.737402,0.12389,-0.491155,61,0,0
0.229,3.08,8.542,-37.5,-13.799999,-23.82,98.84375,-19.65625,1.453125,0.078649,-0.280841,-0.147494,61,0,0
0.217,3.504,9.409,-37.02,-12.599999,-24.96,94.015625,-21.703123,1.34375,0.505333,-0.037217,0.157872,61,0,0
0.691,3.145,12.03,-37.8,-12.599999,-23.82,97.75,-15.03125,3.046875,0.274486,0.09708,0.148833,61,0,0
2.654,4.124,11.144,-37.8,-11.219999,-24.48,91.703125,-22.046877,12.03125,0.05753,-0.027231,0.097703,70,0,0
-1.563,1.347,7.077,-38.46,-11.219999,-23.58,103.34375,-6.171875,-13,-0.368806,0.07086,-0.143953,70,0,0
-0.665,1.543,9.749,-38.219997,-12.719999,-22.26,97.18751,-9.984375,-2.734375,-0.23031,0.355115,-0.140772,70,0,0
-0.438,2.879,8.078,-38.46,-13.5,-23.1,100.171875,-19.78125,-2.578125,-0.015507,0.121083,-0.155305,80,0,0
0.629,3.48,8.741,-37.68,-12.059999,-24.18,97.71875,-20.53125,2.6875,0.129197,0.095961,-0.039997,80,0,0
0.715,3.08,11.949,-38.28,-10.0199995,-24.06,92.56249,-15.46875,3,0.32324,-0.308453,0.368015,80,0,0
1.091,3.2,10.213,-38.82,-10.139999,-23.519999,92.53125,-18.5625,5.4375,0.054148,-0.209734,0.327126,90,0,0
-0.289,2.273,8.346,-38.28,-12.36,-23.82,100.25,-14.390625,-3.1875,-0.302554,0.081307,-0.107212,90,0,0
0.181,1.74,8.205,-37.5,-14.7,-23.4,102.25,-11.78125,1.59375,-0.271801,0.027569,-0.390273,90,0,0
-0.416,3.094,9,-36.3,-15.12,-23.58,100.93751,-18.890623,-2.296875,0.023871,-0.127307,-0.288119,89,0,0
-0.268,4.191,8.949,-35.88,-14.94,-23.88,96.90625,-24.390623,-1.015625,0.462033,0.140415,0.050964,89,0,0
0.536,3.262,12.482,-36.059998,-14.639999,-24.359999,100.93751,-14.828125,2.6875,0.222024,0.003773,0.026265,89,0,0
1.28,2.025,11.309,-36.42,-13.5,-24.72,96.625,-13.359375,9.125,0.010739,-0.275679,0.046611,89,0,0
0.181,4.425,5.081,-37.32,-13.139999,-23.4,84.890625,-42.25,0,-0.109583,0.10583,0.022629,94,0,0
-1.072,1.215,10.852,-38.16,-13.92,-21.72,102.78125,-6.5,-5.9375,-0.028101,0.238774,-0.007876,94,0,0
-0.107,2.968,8.686,-37.62,-13.92,-22.02,99.421875,-19.421877,-0.703125,-0.279658,0.019654,-0.213448,94,0,0
1.067,4.31,8.629,-36.78,-13.259999,-22.32,94.296875,-26.5,5.625,0.407134,-0.096133,0.25413,99,0,0
0.172,3.485,11.35,-37.38,-13.139999,-21.48,97.765625,-16.734375,2.015625,0.311639,-0.19923,0.266977,99,0,0
-0.782,0.701,11.077,-37.68,-13.74,-21,101.765625,-5.6875,-1.203125,-0.12576,-0.079578,-0.058154,99,0,0
0.572,2.424,8.416,-37.38,-15.059999,-21.3,103.5,-16.484375,3,-0.538158,0.078977,-0.406002,102,0,0
0.026,2.582,9.466,-36.12,-16.199999,-21.72,106.21875,-14.5,1.65625,-0.114258,-0.141829,-0.271905,102,0,0
0.236,3.927,8.262,-35.88,-15.96,-22.68,101.328125,-24.671877,0.953125,0.097804,-0.070081,-0.142793,102,0,0
-0.134,3.626,9.737,-36,-16.44,-22.26,100.703125,-20.46875,-1.28125,0.51033,0.124955,0.216898,102,0,0
-0.411,4.871,10.555,-35.88,-16.44,-22.38,102.703125,-23.265623,-2.4375,0.127419,-6.67E-04,-0.011757,105,0,0
-1.424,1.381,10.536,-36.48,-15.599999,-22.38,103.046875,-8.484375,-5.796875,0.254089,-0.082048,0.144017,105,0,0
0.241,3.257,7.779,-37.02,-15.12,-21.3,99.90625,-23.6875,1.59375,-0.151774,0.159839,-0.098484,105,0,0
-0.095,2.374,8.727,-37.68,-15.42,-20.88,105.359375,-14.15625,-1.28125,-0.28148,0.289663,-0.174769,71,0,0
-0.308,3.542,8.535,-37.62,-14.7,-21.06,100.296875,-21.578123,-2.09375,-0.137466,-4.00E-06,-0.064127,71,0,0
1.017,4.155,10.038,-38.219997,-12.36,-21.6,92.5,-23.265623,5.9375,0.512633,-0.10628,0.47931,71,0,0
0.342,5.165,10.778,-39.18,-11.94,-21,95.06249,-24.671877,0.640625,0.196106,-0.244794,0.452312,60,0,0
0.136,1.625,10.91,-38.28,-12.96,-21.18,101.18751,-7.859375,0.921875,-0.227977,-0.090977,0.059551,60,0,0
0.957,2.625,7.154,-37.98,-14.5199995,-21.359999,98.734375,-20.609377,7.96875,-0.462863,-0.201004,-0.19589,60,0,0
0.011,3.195,8.593,-36.78,-17.039999,-20.22,102.28125,-20.71875,0.53125,0.126248,-0.161658,-0.133315,60,0,0
0.373,4.818,7.865,-35.579998,-17.22,-21.72,100.75,-30.75,1.671875,0.103543,0.190245,-0.31257,60,0,0
-0.773,3.516,10.371,-36.42,-17.64,-21.359999,101.28125,-19.25,-4.34375,0.387576,0.170134,-0.011084,60,0,0
0.454,5.306,10.168,-36.66,-17.039999,-20.88,102.68751,-25.328123,0.140625,-0.039576,0.061766,-0.180494,60,0,0
-1.551,1.371,8.949,-36.66,-16.02,-21.6,105.09375,-8.59375,-5.96875,0.027538,-0.165928,0.002042,62,0,0
-0.026,3.365,8.179,-37.62,-15.719999,-20.82,93.390625,-26.15625,0.84375,-0.069798,0.178848,-0.007266,62,0,0
-0.672,2.18,9.555,-37.62,-15.66,-18.9,106.796875,-11.09375,-5.515625,-0.123026,0.235871,-0.074158,62,0,0
0.775,3.793,8.894,-37.86,-14.219999,-20.52,100.078125,-22.71875,3.859375,-0.427804,0.109506,-0.263903,65,0,0
1.239,3.882,9.797,-39.059998,-11.639999,-21.72,92.96875,-22.046877,6.609375,0.313769,-0.325094,0.460057,65,0,0
0.868,4.361,10.611,-39.12,-11.34,-21.42,95.359375,-21.578123,2.90625,-0.012677,-0.209959,0.421012,65,0,0
-1.306,0.6,9.208,-38.82,-12.3,-21.66,100.828125,-4.375,-6.390625,-0.23443,-0.043884,0.11065,65,0,0
0.914,1.986,8.463,-38.579998,-15.059999,-21.359999,101.34375,-13.75,6.953125,-0.474474,0.18674,-0.322156,68,0,0
-0.102,3.676,8.509,-37.68,-16.74,-20.76,102.546875,-22.71875,0.75,0.053345,-0.10371,-0.214686,68,0,0
0.019,4.105,9.323,-36.899998,-16.619999,-21.9,100.765625,-23.71875,0,0.352517,0.083942,-0.08325,68,0,0
-0.213,3.927,9.837,-37.32,-16.26,-21.3,100.484375,-22.0625,-1.484375,0.367402,0.183737,0.019311,64,0,0
0.236,4.662,10.139,-36.899998,-16.32,-21.48,102.390625,-21.875,0.1875,0.081337,0.069022,-0.046761,64,0,0
-1.055,1.802,10.113,-38.16,-15.54,-21.48,102,-11.34375,-3.5,0.220748,-0.265708,0.19735,64,0,0
1.091,3.025,8.078,-39.059998,-15.059999,-20.4,97.390625,-22.75,7.484375,-0.103013,0.039936,-0.009571,60,0,0
0.423,2.29,9.584,-38.76,-15.12,-19.92,106.56249,-10.171875,0.3125,-0.382984,0.094042,-0.193188,60,0,0
0.272,3.693,8.03,-39.059998,-13.32,-22.26,95.328125,-25.125,1.421875,-0.089431,-0.010352,0.037721,60,0,0
0.651,3.552,9.787,-39.42,-11.759999,-22.859999,93.90625,-20.34375,3.109375,0.391881,0.065698,0.516217,60,0,0
-0.303,4.504,10.785,-39.48,-11.4,-21.9,95.09375,-20.828123,-1.703125,-0.008419,-0.001006,0.283905,60,0,0
-1.01,0.926,11.211,-39.36,-12.3,-21.9,99.640625,-5.265625,-4.25,-0.019194,0.021724,0.175813,60,0,0
1.261,2.35,7.504,-39.3,-14.7,-21.3,99.578125,-17.953123,8.59375,-0.491788,-0.027266,-0.308533,60,0,0
0.15,3.185,8.937,-39,-17.1,-20.76,104.015625,-18.15625,2.15625,-0.050986,-0.281435,-0.274221,60,0,0
-0.196,4.5,7.757,-37.86,-17.46,-22.68,98.96875,-29.421877,-1.59375,0.393855,0.124811,-0.128622,60,0,0
-0.768,4.014,10.254,-37.92,-17.46,-22.98,99.75,-22,-4.375,0.623576,0.31539,0.077728,60,0,0
-0.734,4.253,10.637,-37.8,-16.619999,-23.46,102.875,-20.28125,-3.71875,-0.067932,0.117681,-0.179113,59,0,0
0.086,1.833,10.862,-37.92,-15.42,-23.22,103,-10.6875,2.015625,0.00578,-0.088914,0.07597,59,0,0
0.344,3.971,6.414,-39.059998,-15.66,-22.8,92.34375,-35.203125,0.5625,-0.061814,-0.026843,0.069225,59,0,0
-0.876,1.204,9.356,-39.18,-16.14,-22.08,106.5,-6.609375,-5.578125,-0.090468,0.102045,-0.034993,60,0,0
-0.198,3.69,8.011,-38.879997,-15.9,-22.02,101.265625,-23.984377,-1.40625,-0.431471,0.04012,-0.300353,60,0,0
0.653,3.939,9.497,-39.059998,-13.86,-23.88,93.890625,-23.171877,3.6875,0.457364,-0.075301,0.326923,60,0,0
-0.363,3.346,11.061,-39.899998,-12.42,-23.46,96.890625,-16.125,-0.28125,0.090202,-0.181171,0.376492,60,0,0
-0.375,1.146,12.166,-40.32,-12.96,-22.98,98.06249,-8.453125,1.625,-0.114603,-0.004118,0.174777,59,0,0
1.282,2.953,7.899,-39.719997,-13.62,-23.279999,99.203125,-20.53125,8.0625,-0.479231,-0.036469,-0.167991,59,0,0
0.43,2.85,7.812,-39.12,-15.059999,-22.26,99.109375,-20.421877,4.171875,0.029023,-0.389373,0.047416,59,0,0
-0.445,3.595,9.081,-38.46,-16.859999,-22.859999,102.109375,-21.0625,-3.21875,0.150762,0.184674,-0.132659,58,0,0
-0.696,3.758,9.399,-38.82,-18.06,-22.32,100.421875,-22.265623,-3.640625,0.307444,0.246662,-0.136691,58,0,0
-0.888,4.698,9.651,-38.52,-18,-22.26,102.875,-24.359377,-5.0625,0.310487,0.142277,-0.087834,58,0,0
-0.445,1.335,11.87,-39.66,-16.619999,-21.72,105.671875,-7.4375,-0.390625,0.144431,-0.159392,-0.02062,58,0,0
0.574,4.811,5.955,-40.32,-16.199999,-20.82,91.984375,-39.656246,3.6875,-0.204724,-0.11516,-0.06865,58,0,0
-0.706,2.032,10.072,-41.46,-15.599999,-20.16,102.25,-11.796875,-3.890625,0.263865,0.042073,0.195443,58,0,0
-0.801,3.219,8.028,-41.28,-14.94,-19.98,101.921875,-20.96875,-5.546875,-0.393783,0.129357,-0.199584,58,0,0
0.732,3.927,9.198,-41.16,-14.34,-20.76,95.5,-23.515623,4.625,0.285588,0.038049,0.277012,56,0,0
0.658,3.88,10.062,-41.82,-13.5,-20.22,97.046875,-21.125,3.78125,0.187667,-0.202896,0.323544,56,0,0
0.576,2.908,9.605,-41.28,-13.86,-19.5,96.53125,-17.828123,4.140625,0.073702,-0.076958,0.194515,56,0,0
1.244,3.102,8.097,-40.62,-15.12,-19.56,101.578125,-19.71875,7.328125,-0.228709,-0.125318,-0.061911,54,0,0
0.198,2.956,7.537,-40.559998,-16.619999,-19.619999,99.078125,-21.90625,2.015625,-1.28E-04,-0.305884,-0.069542,54,0,0
0.686,3.454,11.094,-39.12,-17.46,-19.68,104.578125,-17.140623,3.21875,-0.058464,-0.049015,-0.248559,54,0,0
0.44,4.691,7.769,-38.879997,-17.64,-20.4,97.5,-31.921877,3.78125,0.039317,0.003059,-0.180955,54,0,0
-0.081,3.82,10.381,-38.76,-18.539999,-19.56,103.43751,-20.1875,-0.421875,0.30296,0.160485,0.001552,54,0,0
-0.452,4.897,8.715,-38.399998,-19.92,-19.38,105.375,-26.625,-4.09375,-0.129378,0.218296,-0.327318,54,0,0
0.043,2.69,10.768,-38.1,-21.06,-19.32,105.015625,-17,2.734375,0.274009,-0.013332,-0.081801,54,0,0
-0.303,3.205,7.334,-37.559998,-21.24,-18.96,110,-23.078123,-1.765625,-0.284639,-0.222291,-0.38562,53,0,0
0.72,4.243,8.143,-38.219997,-20.699999,-17.76,104.81249,-27.953123,4.203125,0.182501,0.063744,-0.107598,53,0,0
-0.215,2.032,11.41,-39.059998,-20.939999,-16.98,112.65625,-9.890625,-1.203125,-0.203008,-0.192888,-0.219147,53,0,0
0.888,4.856,7.963,-38.879997,-20.699999,-17.16,105.890625,-30.890623,5.046875,-0.369288,-0.14276,-0.229875,55,0,0
0.047,3.583,9.691,-39.059998,-20.16,-17.46,105.71875,-20.796877,0.21875,0.491206,-0.047594,0.284039,55,0,0
0.222,4.265,8.921,-38.28,-21.24,-16.859999,107.31249,-25.640623,1.171875,0.115274,0.0873,0.062872,55,0,0
0.593,3.947,9.27,-37.62,-22.92,-15.9,111.21875,-22.78125,3.015625,-0.016732,-0.004474,-0.112289,54,0,0
1.005,3.671,8.444,-37.5,-23.16,-15,112.546875,-22.8125,5.90625,-0.030893,-0.24495,-0.220878,54,0,0
0.536,3.363,9.062,-36.96,-24.359999,-14.4,113.71875,-20.609377,3.46875,0.015129,-0.324366,-0.174435,54,0,0
0.706,3.688,8.308,-35.82,-26.16,-13.98,116.609375,-24.125,4.984375,-0.051002,-0.251076,-0.275286,58,0,0
0.727,3.741,9.928,-34.98,-27.119999,-13.259999,119.890625,-20.5,3.578125,-0.056975,-0.12513,-0.366654,58,0,0
0.552,3.851,9.258,-34.92,-27.359999,-13.62,119.59375,-23.015623,3.078125,-0.062595,-0.105411,-0.335988,58,0,0
0.722,3.841,9.11,-34.98,-28.199999,-13.86,120.78125,-22.46875,3.8125,-0.024602,-0.072947,-0.22943,58,0,0
0.301,3.839,9.016,-34.079998,-28.439999,-14.099999,121.453125,-22.65625,1.453125,-0.004137,-0.04097,-0.172292,75,0,0
0.351,3.875,9.208,-34.26,-28.32,-14.16,121.421875,-22.328123,2.328125,-4.25E-04,0.032064,-0.13949,75,0,0
0.148,3.829,8.973,-34.2,-27.66,-14.099999,119.90625,-23.140623,0.734375,0.043633,0.041894,-0.060137,75,0,0
0.253,3.796,9.124,-33.899998,-27.539999,-14.16,120.265625,-23,1.734375,0.059356,0.055377,0.017611,73,0,0
0.313,3.858,8.94,-34.02,-27.599998,-14.88,120.046875,-23.265623,1.515625,0.017497,0.036889,0.005076,73,0,0
-0.1,3.772,8.935,-33.48,-27.66,-15.78,120.09375,-22.9375,-0.390625,-0.016136,0.04359,0.009978,73,0,0
-0.284,3.635,9.311,-33.3,-27.539999,-16.859999,119.78125,-21.65625,-1.234375,-0.029998,0.147446,0.003229,71,0,0
-0.165,3.992,8.664,-33.42,-27.06,-17.76,118.390625,-24.46875,-0.734375,-0.042193,0.198527,0.010495,71,0,0
0.356,4.215,9.497,-33.78,-27.119999,-17.4,117.515625,-24.125,1.53125,-0.001859,0.160632,0.056414,71,0,0
-0.1,3.652,8.593,-34.38,-26.64,-17.22,117.390625,-22.96875,-0.921875,0.049906,0.014688,0.116024,71,0,0
0.371,3.975,9.074,-34.26,-27.06,-16.199999,118.43751,-23.375,2.046875,0.021269,-0.012706,0.082098,62,0,0
0.272,3.801,8.889,-34.38,-27.539999,-14.219999,119.359375,-22.875,1.703125,-5.30E-05,-0.141886,-0.010607,62,0,0
1.472,3.772,9.713,-34.62,-28.019999,-13.259999,121.515625,-20.8125,8.28125,-0.005774,-0.269673,-0.070071,62,0,0
0.538,4.567,7.061,-33.96,-28.859999,-12,119.53125,-31.078123,3.78125,0.032997,-0.270427,-0.09309,84,0,0
0.641,4.93,8.607,-33.6,-30.42,-10.559999,118.68751,-31.515623,1.9375,0.501685,0.080355,0.034837,84,0,0
0.38,4.342,9.215,-33.18,-30.06,-11.219999,123.484375,-25.078123,1.8125,-0.018618,-0.148146,-0.261276,84,0,0
0.406,4.421,8.76,-33.059998,-29.519999,-12.599999,123.578125,-25.703123,3.53125,-0.150799,-0.124918,-0.211566,117,0,0
-0.157,4.322,8.37,-32.46,-29.34,-12.96,123.125,-26.03125,-0.171875,-0.03073,0.006923,-0.044272,117,0,0
-0.019,3.82,8.303,-32.219997,-29.939999,-14.46,123,-24.09375,0.328125,0.061471,0.159374,0.012145,117,0,0
0.617,4.109,9.057,-32.28,-30,-14.46,123,-25.40625,2.546875,8.98E-04,0.119356,-0.002566,0,0,0
0.234,4.282,9.067,-32.82,-30.24,-12.96,123.703125,-24.125,1.984375,-0.200992,-0.091307,-0.112487,84,0,0
0.519,4.49,8.107,-32.1,-31.199999,-12.78,123.53125,-29.765623,2.9375,-0.014804,-0.033339,-0.061591,84,0,0
0.359,3.403,9.624,-31.32,-31.32,-13.799999,124.43751,-20.8125,2.234375,0.128527,-0.015966,-0.049438,84,0,0
0.387,2.958,9.718,-32.46,-30.24,-14.58,125.390625,-17.4375,0.921875,-0.360188,-0.129702,-0.235375,105,0,0
0.373,3.573,8.928,-32.52,-30.359999,-15.42,125.81249,-19.640623,1.171875,-0.400218,-0.070235,-0.135653,105,0,0
0.38,3.322,8.882,-32.28,-29.46,-16.08,125.421875,-20.28125,1.3125,-0.143867,0.0139,0.043276,105,0,0
0.794,3.288,9.699,-32.28,-28.92,-15.299999,125.265625,-18.65625,2.96875,-0.011052,0.046654,0.111129,127,0,0
0.801,3.705,8.87,-33.66,-28.56,-14.7,124.734375,-22.421877,4.53125,-0.033969,-0.025986,0.083917,127,0,0
0.789,3.621,9.232,-33.719997,-28.619999,-14.58,124.09375,-21.21875,4.59375,0.107012,-0.084207,0.160874,127,0,0
0.409,3.736,7.111,-34.02,-28.439999,-14.4,123.078125,-28.796877,3.390625,0.13251,-0.03883,0.146762,127,0,0
0.902,3.851,10.091,-33.66,-28.439999,-14.58,122.75,-21.859377,0.703125,0.162034,0.069397,0.134392,137,0,0
0.246,3.535,8.617,-33.719997,-28.32,-14.58,122.890625,-20.1875,2.125,0.10397,0.068203,0.097023,137,0,0
0.667,3.746,9.335,-33.6,-28.92,-13.86,122.640625,-21.1875,3.578125,0.013354,0.020186,0.012472,137,0,0
0.56,3.679,9.15,-34.02,-28.92,-13.92,122.68751,-21.65625,3.28125,-0.001307,-0.002077,-0.022542,112,0,0
0.478,3.808,8.904,-33.78,-28.859999,-14.16,122.703125,-22.9375,3,-0.011128,-0.008149,-0.024448,112,0,0
0.337,3.844,9.17,-34.079998,-28.859999,-13.679999,122.671875,-22.78125,1.984375,0.013564,9.80E-05,-0.007451,112,0,0
0.61,3.777,9.222,-34.26,-28.199999,-13.679999,122.56249,-22.359377,3.890625,0.005628,0.008253,-0.001416,106,0,0
0.536,3.944,8.76,-33.42,-28.619999,-13.86,122.34375,-24.0625,2.515625,0.019318,0.0096,0.038946,106,0,0
0.548,4.004,8.959,-33.42,-28.619999,-13.5,122.171875,-24.484377,3.015625,0.103868,0.007381,0.036564,106,0,0
0.536,3.899,8.997,-33.36,-28.26,-13.259999,122.31249,-23.203123,3.921875,0.061952,-5.77E-04,0.004261,94,0,0
0.569,4.04,8.899,-33.899998,-28.5,-13.5,122.171875,-24.5625,3.21875,0.01652,-0.005815,-0.009992,94,0,0
0.591,3.884,8.966,-34.2,-28.619999,-13.62,122.125,-23.390623,3.640625,0.025022,0.00622,0.02072,94,0,0
0.612,4.09,8.906,-34.68,-28.5,-13.559999,121.84375,-24.578123,3.671875,0.008657,0.01354,0.033743,94,0,0
0.737,4.15,8.901,-34.92,-28.199999,-13.62,121.5,-24.640623,4.21875,0.040595,0.009226,0.053199,91,0,0
0.646,3.951,8.933,-34.559998,-28.14,-13.08,121.234375,-23.625,3.71875,0.046851,-0.001146,0.071819,91,0,0
0.598,4.093,8.827,-34.559998,-28.199999,-13.0199995,121.140625,-24.859377,3.6875,0.027171,-0.012418,0.02937,91,0,0
0.481,3.889,9.059,-35.1,-27.66,-12.66,120.796875,-24.03125,3.15625,0.02865,0.010161,0.02632,90,0,0
0.607,4.073,8.801,-34.5,-27.9,-12.9,120.828125,-24.4375,3.21875,0.001008,0.047884,0.022982,90,0,0
0.643,4.042,8.803,-34.8,-27.96,-12.9,120.65625,-24.453123,4.09375,-0.00907,0.0134,0.009216,90,0,0
0.306,3.942,8.813,-34.559998,-28.32,-12.96,120.515625,-24.15625,2.15625,0.029016,-0.013113,0.023813,91,0,0
0.363,3.781,9.265,-34.68,-28.14,-12.78,120.640625,-22.265623,1.9375,0.005891,0.050241,-0.014676,91,0,0
0.883,3.959,9.057,-34.98,-27.66,-12.599999,120.640625,-24.0625,4.25,-0.071182,0.026361,-0.038215,91,0,0
0.964,4.05,8.779,-35.399998,-26.34,-13.08,120.28125,-24.734377,5.828125,-0.041385,-0.100454,0.054234,91,0,0
0.861,4.016,9.028,-35.46,-26.699999,-13.32,119.68751,-24.0625,4.90625,0.012616,-0.08128,0.133667,98,0,0
1.105,4.167,8.77,-36.3,-26.4,-13.38,119.21875,-24.921877,6.390625,0.016857,-0.022845,0.102358,98,0,0
0.988,4.126,8.813,-36.96,-25.859999,-13.08,118.640625,-24.828123,5.859375,0.032185,-0.015787,0.107325,98,0,0
1.132,4.102,9.019,-37.26,-25.619999,-13.0199995,117.96875,-24.046877,6.328125,0.045638,-0.002585,0.144098,116,0,0
1.024,4.076,8.803,-37.26,-25.439999,-13.5,117.171875,-24.765623,6,0.017962,0.005566,0.124132,116,0,0
0.904,4.05,8.803,-37.68,-24.96,-13.259999,116.453125,-24.671877,5.40625,0.022744,0.025118,0.115161,116,0,0
1.256,4.188,7.671,-37.02,-25.26,-12.9,115.984375,-25.703123,6.640625,0.048105,0.046664,0.100483,127,0,0
0.962,4.052,9.031,-36.899998,-25.32,-13.0199995,116.171875,-23.6875,5.34375,0.010115,0.019095,0.009116,127,0,0
0.986,4.018,8.775,-37.26,-25.14,-13.62,115.875,-24.640623,6.03125,-0.042663,-0.002014,-0.033339,127,0,0
0.811,4.016,8.832,-36.42,-25.5,-13.32,115.859375,-24.734377,4.84375,0.005194,0.002795,0.001066,127,0,0
0.859,3.994,9.114,-36.3,-25.5,-13.92,116.06249,-23.671877,4.703125,-0.009725,0.01837,-0.040536,122,0,0
0.914,4.03,8.916,-36.66,-25.439999,-13.679999,116.171875,-24.09375,5.375,-0.050913,0.01919,-0.050317,122,0,0
0.919,4.004,8.822,-36.899998,-25.439999,-13.38,116.109375,-24.390623,5.265625,-0.019002,0.005979,-0.015585,122,0,0
0.931,4.045,8.935,-36.78,-25.32,-14.16,116.015625,-24.25,5.203125,0.015561,-0.002741,0.022865,112,0,0
0.909,4.045,8.909,-37.38,-24.9,-13.679999,115.671875,-24.53125,5.09375,0.006739,0.015223,0.042474,112,0,0
0.9,4.085,8.901,-37.2,-25.26,-13.559999,115.484375,-24.3125,4.9375,0.007742,0.035122,0.055527,112,0,0
0.852,4.081,8.933,-37.02,-24.72,-13.259999,115.25,-25.015623,4.765625,0.016954,0.034436,0.024401,112,0,0
0.938,4.033,9.05,-37.079998,-24.539999,-13.559999,115.203125,-23.5625,4.9375,0.002575,0.038106,0.019486,112,0,0
0.947,4.081,8.822,-37.8,-24.84,-13.62,114.953125,-24.453123,5.546875,-0.018147,0.021489,0.022234,112,0,0
0.83,4.006,8.964,-37.92,-25.14,-13.86,114.796875,-24.09375,5.1875,0.009179,0.004747,0.040667,112,0,0
0.916,4.083,9.038,-37.2,-25.14,-13.259999,114.875,-24.46875,5.296875,0.007287,-0.006216,0.004674,110,0,0
0.9,4.148,8.784,-37.8,-25.5,-13.38,114.984375,-24.984377,5.265625,2.94E-04,-0.016125,-0.028746,110,0,0
0.876,4.059,8.81,-37.38,-25.619999,-13.559999,115.015625,-24.671877,5.09375,0.024523,-0.01564,-0.029789,110,0,0
0.895,4.064,8.949,-37.2,-25.8,-14.16,115.125,-24.5625,5.328125,0.023262,0.005824,-0.015078,106,0,0
1.017,4.169,8.971,-37.38,-25.019999,-13.92,115.125,-24.5625,5.765625,-0.005173,-0.005918,-0.017575,106,0,0
0.978,4.198,8.784,-37.62,-24.96,-13.559999,114.93751,-25.03125,5.65625,0.009221,-0.026077,0.037839,106,0,0
0.883,4.112,8.916,-37.86,-25.199999,-13.38,114.765625,-24.859377,5.484375,0.043304,-0.00998,0.046958,109,0,0
0.945,4.188,8.399,-37.92,-25.56,-13.5,114.78125,-25.59375,5.4375,0.027148,0.00312,0.012307,109,0,0
0.969,4.222,8.822,-37.86,-24.84,-13.679999,114.640625,-24.921877,5.546875,0.026046,0.001601,0.008219,109,0,0
0.854,4.184,8.94,-37.68,-24.9,-13.679999,114.31249,-25.078123,4.84375,0.01956,0.018415,0.038518,99,0,0
0.828,4.085,8.712,-37.8,-25.26,-13.92,114.296875,-24.859377,4.40625,0.015366,0.03722,0.032394,99,0,0
0.83,4.114,9.167,-37.559998,-25.439999,-13.559999,114.359375,-24.5,5.015625,-0.009343,0.01768,-0.014039,99,0,0
0.701,4.119,8.827,-37.559998,-25.74,-13.62,114.671875,-25.0625,3.96875,-0.046255,8.03E-04,-0.063343,99,0,0
0.837,4.143,8.856,-37.079998,-25.26,-13.799999,114.859375,-24.796877,5.015625,-0.03549,0.018402,-0.054977,97,0,0
0.835,4.059,8.959,-36.719997,-25.439999,-13.679999,114.890625,-24.546877,4.765625,-0.009641,0.003542,-0.012328,97,0,0
0.756,4.088,8.882,-36.66,-25.56,-13.92,115.125,-24.46875,4.453125,-0.006691,-0.006683,-0.020337,97,0,0
0.751,4.09,8.889,-37.079998,-25.439999,-13.92,115.15625,-24.671877,4.234375,-0.016132,0.012666,-0.021125,97,0,0
0.734,4.078,8.983,-37.32,-25.199999,-13.86,115.09375,-24.0625,4.25,-0.002893,0.03011,0.005973,97,0,0
0.679,4.047,8.933,-37.26,-25.439999,-14.219999,115.06249,-24.25,3.640625,-0.00323,0.041863,0.010125,97,0,0
0.777,4.057,8.94,-37.26,-25.32,-13.86,115.09375,-23.96875,4.03125,-0.010247,0.022995,9.78E-04,94,0,0
0.813,4.069,8.933,-37.26,-25.14,-14.099999,115.078125,-24.46875,4.796875,-0.004545,-0.014349,-5.44E-04,94,0,0
0.878,4.066,8.904,-37.8,-25.32,-13.92,115.015625,-24.375,5.484375,-0.01091,-0.040158,0.01444,94,0,0
0.978,4.186,8.921,-37.62,-25.26,-13.92,114.953125,-25.046877,5.609375,8.74E-04,-0.049857,0.026894,94,0,0
0.95,3.925,9.991,-37.079998,-24.84,-14.16,114.93751,-20.84375,6.78125,0.027577,-0.018789,0.022832,99,0,0
0.734,4.15,8.509,-37.5,-24.42,-14.4,114.640625,-26.28125,4.53125,-0.015663,0.008393,0.008141,99,0,0
0.907,4.1,8.894,-37.26,-25.14,-13.86,114.59375,-24.296877,5.125,0.007062,0.026965,0.036809,99,0,0
0.825,4.155,9.052,-37.079998,-25.74,-13.799999,114.84375,-24.828123,4.734375,0.008806,0.003912,-0.005719,101,0,0
0.799,4.088,8.808,-37.02,-25.32,-13.2,115.171875,-24,3.6875,-0.021393,-0.00193,-0.075479,101,0,0
0.933,4.112,8.911,-37.02,-25.14,-13.5,115.18751,-24.640623,5.515625,-0.029726,0.010047,-0.048502,101,0,0
0.842,4.083,8.849,-37.2,-25.019999,-13.62,115.015625,-24.984377,4.765625,0.015711,-0.002351,0.017279,101,0,0
0.773,4.054,8.906,-37.38,-25.56,-14.16,115,-24.203123,4.671875,0.015632,-0.004521,0.035494,101,0,0
0.83,4.145,8.825,-37.079998,-25.14,-13.98,115,-25.046877,4.625,-0.002869,0.011053,0.002667,101,0,0
0.835,4.085,8.846,-37.26,-24.66,-13.679999,114.796875,-25.046877,4.65625,0.019634,0.015266,0.014578,101,0,0
0.83,4.054,8.916,-37.26,-24.96,-13.62,114.78125,-24.1875,4.515625,0.012027,0.011949,0.027409,98,0,0
1.057,4.129,9.045,-37.38,-24.72,-13.559999,114.78125,-24.5,6.046875,-0.008414,-0.017204,0.001982,98,0,0
0.998,4.162,8.751,-37.079998,-24.3,-13.679999,114.53125,-25.21875,5.890625,0.002648,-0.073329,0.021795,98,0,0
1,3.81,10.048,-37.2,-24.66,-14.16,114.484375,-20.9375,5.15625,0.024279,-0.013883,0.049995,102,0,0
0.835,4.176,8.401,-37.86,-24.9,-13.799999,114.40625,-26.46875,4.78125,-0.034647,0.021619,0.001729,102,0,0
0.732,3.839,9.244,-37.5,-24.84,-13.86,114.40625,-22.625,4.28125,-0.012224,0.036979,0.001335,102,0,0
0.794,3.994,9.016,-36.899998,-25.26,-13.98,114.578125,-23.96875,4.3125,-0.018154,0.043502,-0.01207,103,0,0
0.667,4.073,8.696,-36.96,-25.32,-13.5,114.890625,-25.046877,4.34375,-0.022675,0.003652,-0.0628,103,0,0
0.6,3.899,9.067,-37.079998,-25.439999,-14.099999,115.234375,-22.40625,3.296875,-0.019509,-0.009198,-0.070727,103,0,0
0.866,4.038,8.837,-37.32,-25.5,-14.4,115.296875,-24.515623,4.78125,-0.046158,0.033463,-0.053437,99,0,0
0.854,3.99,8.873,-36.66,-24.84,-13.98,115.390625,-23.515623,4.484375,-0.024632,0.001018,-0.011559,99,0,0
0.797,3.92,9.002,-36.6,-24.3,-14.5199995,115.234375,-23.59375,4.53125,-0.008591,-0.024826,0.028638,99,0,0
0.732,3.894,9.062,-36.42,-24.24,-14.5199995,115.06249,-23.0625,3.96875,-6.61E-04,0.020855,0.046321,99,0,0
0.825,4.006,9.004,-36.66,-24.72,-14.759999,114.96875,-23.8125,4.765625,-0.007268,0.022651,0.02972,97,0,0
0.742,3.947,8.935,-36.96,-25.019999,-13.86,114.90625,-23.484377,4.671875,0.001101,-0.007481,0.004532,97,0,0
0.758,3.968,8.846,-36.78,-24.539999,-14.099999,114.93751,-23.8125,4.109375,0.006355,-0.007088,-0.005909,97,0,0
0.866,4.021,8.966,-37.2,-24.3,-13.98,114.765625,-24.203123,4.953125,0.02232,0.001447,0.012586,99,0,0
0.73,4.062,8.837,-37.32,-24.84,-13.86,114.68751,-24.421877,4.515625,0.030835,-0.004872,0.026109,99,0,0
0.84,3.963,9.014,-37.5,-24.84,-13.92,114.859375,-23.578123,4.90625,-0.002317,-0.00337,-0.007424,99,0,0
0.981,4.097,8.791,-37.8,-24,-13.98,114.421875,-24.859377,5.71875,-0.001222,-0.002128,0.012234,105,0,0
0.904,3.951,8.992,-37.559998,-24.539999,-13.2,114.265625,-23.90625,5.296875,0.031984,-0.037483,0.083566,105,0,0
0.9,4.1,8.88,-37.2,-25.14,-13.559999,114.453125,-24.640623,5.125,0.004919,-0.026809,0.011972,105,0,0
0.859,4.04,8.945,-37.38,-24.96,-14.16,114.578125,-24.1875,5.078125,0.004032,-0.015246,-0.05763,105,0,0
0.835,3.959,8.889,-37.5,-24.66,-13.92,114.546875,-24.03125,5.265625,0.008639,-0.00366,-0.015882,106,0,0
1.029,4.045,8.918,-37.2,-24.359999,-13.62,114.46875,-24.34375,5.96875,0.00249,0.01242,0.023751,106,0,0
1.22,4.105,8.88,-37.559998,-25.019999,-13.32,114.609375,-24.515623,7.203125,-0.011273,-0.053563,0.003375,106,0,0
0.911,3.978,8.866,-38.1,-24.66,-13.679999,114.578125,-24.28125,5.546875,-0.005991,-0.082061,-0.009004,108,0,0
0.811,3.994,8.866,-37.68,-25.019999,-13.559999,114.56249,-24.34375,5.1875,0.003345,1.53E-04,0.006038,108,0,0
0.861,4.023,8.983,-37.62,-24.9,-13.799999,114.625,-24,5.34375,0.003257,0.050971,-0.006331,108,0,0
0.811,3.939,8.834,-37.8,-25.14,-13.559999,114.68751,-24.0625,4.734375,-0.013626,0.034735,-0.021125,110,0,0
1.156,4.059,9.009,-38.16,-24.6,-13.08,114.68751,-23.9375,6.3125,-0.011712,0.016483,-0.01241,110,0,0
1.091,4.042,8.94,-38.1,-23.46,-13.679999,114.25,-24.734377,6.5625,-4.00E-04,-0.058372,0.05,110,0,0
0.818,3.932,8.839,-38.219997,-23.699999,-14.16,113.828125,-24.1875,5.078125,0.011274,9.95E-04,0.108744,110,0,0
1.074,4.042,9.05,-37.92,-24.539999,-14.16,113.734375,-24.28125,6.171875,0.002719,0.070583,0.058957,108,0,0
1.046,4.026,8.94,-37.5,-24.6,-13.86,113.875,-24.640623,6.53125,-0.002826,-0.013122,-0.02446,108,0,0
0.89,4.018,8.849,-37.38,-24.66,-13.5,114.09375,-24.640623,5.46875,0.006515,-0.058269,-0.042707,108,0,0
0.77,3.925,9.182,-37.5,-24.6,-14.16,114.18751,-22.546877,5.296875,0.008414,-0.022835,-0.032063,109,0,0
0.945,4.057,8.913,-37.86,-24.66,-13.38,114.31249,-24.640623,5.40625,-0.022714,0.030927,-0.034237,109,0,0
0.902,3.927,8.949,-38.46,-24.42,-13.32,114.31249,-23.390623,5.40625,-0.014455,0.027011,-0.013107,109,0,0
0.921,4.045,8.99,-38.219997,-24.84,-13.559999,114.265625,-24.390623,5.515625,-0.013203,0.021859,0.004427,113,0,0
0.871,3.961,8.904,-37.68,-24.9,-13.679999,114.453125,-23.671877,5.265625,-0.009762,0.010965,-0.00424,113,0,0
0.921,4.023,9.019,-37.38,-24.72,-13.0199995,114.59375,-23.9375,5.375,-0.016459,-0.005685,-0.029675,113,0,0
0.804,3.93,8.803,-37.98,-24.6,-13.32,114.56249,-24.15625,4.875,-0.003232,-0.014363,-0.020736,113,0,0
0.969,4.038,8.916,-38.1,-24.119999,-13.2,114.46875,-24.03125,5.625,0.012788,9.66E-04,0.019018,113,0,0
0.957,3.983,8.961,-38.219997,-23.82,-13.62,114.15625,-24,5.578125,0.00411,0.001517,0.051297,113,0,0
1.002,4.064,8.837,-37.62,-24.119999,-13.5,114,-24.5,6.046875,0.013122,-0.001647,0.057228,113,0,0
1.019,3.999,8.911,-38.28,-23.939999,-13.08,113.875,-24.21875,6.3125,0.033426,-0.011014,0.032755,107,0,0
0.959,3.973,8.968,-37.92,-24.24,-13.2,113.78125,-24.09375,5.625,0.023956,-0.014672,0.015659,107,0,0
1.06,4.035,8.909,-37.86,-24.119999,-13.62,113.796875,-24.40625,5.96875,0.005285,-0.008151,0.001198,107,0,0
1.038,4.035,8.882,-38.219997,-23.76,-13.62,113.671875,-23.875,5.75,0.001747,-0.002057,0.008385,109,0,0
1.029,3.994,8.897,-38.46,-24.3,-13.2,113.56249,-23.84375,5.75,-2.50E-04,0.005459,0.020892,109,0,0
1,4.011,8.93,-37.98,-24.539999,-12.9,113.609375,-23.90625,5.578125,0.00499,0.004948,0.007217,109,0,0
1.048,3.99,8.997,-38.16,-24.6,-12.9,113.81249,-23.640623,5.890625,-0.001146,-0.010199,-0.035832,109,0,0
1.036,4.064,8.904,-38.46,-24.119999,-13.259999,113.796875,-24.453123,6.046875,-0.006783,-0.016371,-0.027529,109,0,0
0.938,4.047,8.918,-37.92,-24.6,-13.679999,113.765625,-24.484377,5.65625,0.003134,0.004346,0.00656,109,0,0
1.002,3.999,8.901,-37.559998,-24.539999,-13.679999,114,-24.078123,5.71875,-0.004407,0.029458,-0.004491,109,0,0
1.014,4.052,8.921,-37.559998,-24.119999,-13.5,114.078125,-23.9375,5.90625,-0.026202,0.002557,-0.03437,109,0,0
1.038,3.999,8.904,-37.68,-24.539999,-13.799999,114.078125,-23.96875,5.796875,-0.010808,-0.020994,-0.00838,109,0,0
0.926,3.947,9.002,-38.219997,-24.6,-13.559999,114.06249,-23.78125,5.328125,-0.001212,-0.006861,0.00484,109,0,0
0.945,4.021,8.866,-38.28,-24.3,-13.5,114.015625,-24.09375,5.6875,-0.007792,0.01843,0.011213,104,0,0
0.928,4.006,8.949,-38.28,-24.06,-13.5,113.859375,-23.9375,5.4375,0.00144,0.011334,0.009831,104,0,0
0.933,4.011,8.844,-37.86,-24.72,-13.559999,113.890625,-24.53125,5.71875,0.013373,0.013911,0.011943,104,0,0
0.907,3.944,8.913,-37.5,-24.539999,-13.679999,114.09375,-24.03125,5.265625,-0.002569,0.010073,-0.023971,104,0,0
0.99,4.004,9.024,-37.86,-24.24,-13.5,114.078125,-24.1875,6,-0.011604,6.10E-04,-0.028031,104,0,0
0.84,3.961,8.887,-37.68,-24.42,-13.5,114.078125,-24,5.15625,0.007903,-0.005839,0.005896,104,0,0
0.801,3.973,8.899,-37.559998,-24.3,-13.92,114.15625,-23.421877,4.671875,-0.003964,0.025302,-0.002779,104,0,0
0.957,4.059,8.978,-37.92,-24.119999,-13.559999,114.046875,-24.546877,5.34375,-0.001748,0.027363,-0.002519,103,0,0
0.856,3.949,8.952,-37.8,-24.06,-12.719999,113.93751,-23.90625,5.015625,0.010564,0.019266,0.028994,103,0,0
0.89,4.002,8.794,-36.899998,-24.84,-13.2,114.171875,-24.1875,5.359375,-0.003963,5.63E-04,-0.003723,103,0,0
0.907,3.954,8.99,-37.26,-24.539999,-13.5,114.40625,-23.609377,5.328125,-0.005934,-0.026039,-0.059737,104,0,0
0.907,4.033,8.98,-37.98,-24.96,-13.86,114.421875,-24.359377,5.4375,-0.001985,-0.023997,-0.038664,104,0,0
0.926,4.018,8.887,-37.98,-24.539999,-13.559999,114.359375,-24,5.46875,0.01364,-0.013648,0.016565,104,0,0
0.794,3.92,9.213,-37.5,-24.06,-13.32,114.31249,-21.96875,5.296875,0.00965,-0.011313,0.029111,106,0,0
0.878,4.133,8.758,-37.559998,-24.6,-13.5,113.984375,-25.8125,4.671875,-0.001026,0.019735,0.025988,106,0,0
0.88,4.09,8.894,-36.78,-24.72,-13.08,114.203125,-24.25,5.265625,0.02199,0.03573,0.004327,106,0,0
1.005,4.105,9.11,-37.26,-24.84,-12.96,114.421875,-23.90625,4.9375,0.016228,-0.00373,-0.048266,106,0,0
0.962,4.124,8.633,-37.5,-24.9,-12.719999,114.484375,-25.671877,5.828125,0.004666,-0.031297,-0.033929,103,0,0
0.876,4.078,8.787,-37.26,-24.9,-13.559999,114.578125,-24.34375,4.8125,0.026245,-0.024843,-0.003061,103,0,0
1.026,4.078,8.98,-37.8,-23.939999,-13.799999,114.34375,-24.0625,5.6875,0.005725,-9.11E-04,0.015932,103,0,0
1.002,4.088,8.861,-37.98,-24,-13.62,113.984375,-24.796877,5.75,0.002537,0.019242,0.069047,103,0,0
1.036,4.119,8.81,-37.68,-23.939999,-13.259999,113.78125,-25.015623,6.390625,0.010578,0.007917,0.069282,103,0,0
1.091,4.162,8.827,-37.98,-23.64,-13.38,113.484375,-25.171877,6.328125,0.023002,1.91E-04,0.048751,103,0,0
1,4.124,8.909,-37.8,-24.119999,-13.679999,113.40625,-24.328123,6,0.012976,-0.001852,0.036322,107,0,0
0.919,4.064,8.854,-37.8,-24.539999,-13.32,113.484375,-24.609377,5.375,-0.010681,-0.004266,-0.00233,107,0,0
1.002,3.966,9.294,-37.32,-24.72,-13.32,113.65625,-24.671877,4.203125,-0.003292,0.012369,-0.051326,107,0,0
0.825,4.023,8.832,-37.26,-24.3,-13.32,113.96875,-24.21875,5.0625,-0.030665,-0.002778,-0.067297,107,0,0
0.897,3.973,9.091,-36.719997,-24.359999,-13.32,114.15625,-23.515623,4.875,-0.029976,0.004743,-0.050815,105,0,0
0.864,3.942,9.059,-36.899998,-24.539999,-14.4,114.359375,-23.8125,4.953125,-0.028744,0.006182,-0.041599,105,0,0
0.928,4.03,8.952,-36.899998,-24.06,-13.92,114.359375,-24.078123,5.71875,-0.028695,0.009725,-0.013994,105,0,0
0.773,3.961,8.925,-37.02,-24.96,-14.099999,114.484375,-23.515623,4.625,-0.02676,0.004287,0.006065,97,0,0
0.749,3.937,8.93,-36.78,-24.96,-13.5,114.71875,-23.703123,4.625,-0.014512,0.010453,-0.033837,97,0,0
1.005,4.081,9.024,-36.48,-25.019999,-13.32,114.93751,-23.90625,5.546875,-0.004179,0.012885,-0.045411,97,0,0
0.959,4.461,8.83,-36.3,-25.859999,-13.0199995,115.15625,-26.84375,5.75,0.051137,-0.033008,-0.027055,103,0,0
1.426,4.217,8.866,-36.3,-26.699999,-13.2,115.75,-23.671877,8.109375,0.082774,-0.122725,-0.063934,103,0,0
-0.294,3.085,9.584,-35.52,-27.84,-13.799999,116.65625,-18.15625,-0.609375,-0.07588,-0.009123,-0.184626,103,0,0
-0.246,3.501,8.696,-33.12,-28.199999,-15.66,118.203125,-21.03125,-2.0625,-0.36575,0.429198,-0.395312,93,0,0
0.062,3.341,9.325,-32.399998,-28.26,-16.38,119.46875,-19.1875,0.078125,-0.263423,0.238531,-0.317732,93,0,0
0.308,3.753,9.136,-32.52,-28.619999,-15.12,120.265625,-22.390623,1.5625,-0.107079,-0.044641,-0.199785,93,0,0
0.342,3.748,9.282,-32.52,-28.32,-15.059999,120.84375,-21.96875,1.953125,0.131722,-0.129205,-0.053448,93,0,0
0.196,3.784,8.911,-32.399998,-28.439999,-15.299999,121.21875,-23.03125,1.0625,0.093132,-0.084721,-0.034109,84,0,0
0.253,3.655,9.103,-32.76,-28.32,-15.36,121.53125,-22.34375,1.484375,0.064594,-0.03037,-0.017955,84,0,0
0.062,3.698,8.863,-33.96,-28.199999,-15.12,121.65625,-21.453123,0.640625,0.013794,-0.019934,-0.010906,84,0,0
0.198,3.863,8.717,-33.899998,-28.32,-14.759999,121.265625,-23.96875,1.140625,0.015848,0.018875,0.061831,88,0,0
0.153,3.688,8.909,-33.899998,-28.439999,-14.46,121.31249,-22.421877,1.125,0.067968,0.034858,0.057894,88,0,0
0.921,3.901,9.5,-35.28,-27.3,-14.219999,121.06249,-22.234377,4.25,0.006799,0.00449,0.031536,88,0,0
1.062,3.987,8.806,-36.18,-26.46,-13.92,120.421875,-23.71875,6.671875,-0.020557,-0.20127,0.147641,113,0,0
0.809,3.884,8.901,-36.6,-26.16,-13.92,119.453125,-24.234377,5.625,0.067195,-0.200092,0.226323,113,0,0
0.878,4.011,9.045,-36.12,-25.8,-13.62,118.875,-23.8125,5.40625,0.088868,-0.073313,0.180091,113,0,0
0.722,3.983,9.031,-36.18,-25.619999,-14.219999,118.203125,-23.78125,4.515625,0.039967,0.018449,0.119661,113,0,0
0.804,3.848,9.416,-36.059998,-26.099998,-14.219999,117.671875,-25.453123,4.984375,0.052687,0.053369,0.082467,115,0,0
0.768,3.724,9.047,-36,-26.16,-14.219999,117.71875,-22.6875,4.796875,0.006667,0.035555,0.014159,0,0,0
1.043,4.045,9.174,-35.76,-26.16,-13.799999,117.671875,-23.6875,5.296875,-0.059061,0.009036,-0.025897,0,0,0
0.806,3.999,9.012,-35.88,-26.039999,-13.559999,117.56249,-23.734377,5.296875,-0.005407,-0.061118,-0.004493,121,0,0
0.332,4.006,8.959,-35.82,-26.22,-13.86,117.265625,-25.125,2.65625,0.05878,-0.006727,0.032602,121,0,0
0.555,4.066,9.028,-35.579998,-26.64,-13.559999,117.453125,-23.296877,3.359375,0.048106,0.132059,-0.001595,121,0,0
0.72,3.906,8.765,-35.219997,-26.939999,-13.259999,117.625,-25.234377,3.296875,0.008583,0.065687,-0.066803,106,0,0
0.945,3.915,9.387,-35.16,-27.42,-13.62,118.40625,-21.296877,5.296875,-0.044445,-0.030851,-0.090822,106,0,0
1.069,4.528,8.183,-35.52,-27.9,-14.5199995,117.56249,-29.515623,5.65625,0.116366,0.040376,-0.030242,106,0,0
-4.871,6.661,7.073,-34.2,-28.439999,-14.58,117.46875,-37.515625,-18.890623,0.388219,0.076902,0.13114,106,0,0
-3.023,4.452,10.244,-30.779999,-30.539999,-15.96,117.578125,-25.25,-13.359375,0.409053,0.994872,-0.122423,73,0,0
-2.57,5.029,8.93,-28.019999,-31.92,-19.199999,118.828125,-29.578123,-14.09375,0.049343,0.71546,-0.451542,73,0,0
-3.257,5.002,8.552,-26.4,-31.619999,-20.699999,114.734375,-30.84375,-20.46875,0.279631,0.689148,-0.118644,73,0,0
