lsm6dso_accelerometer.x,lsm6dso_accelerometer.y,lsm6dso_accelerometer.z,ak09918_magnetometer.x,ak09918_magnetometer.y,ak09918_magnetometer.z,lsm6dso_gyroscope.x,lsm6dso_gyroscope.y,lsm6dso_gyroscope.z,tmd4912_light_cct.x,tmd4912_light_cct.y,tmd4912_light_cct.z
0,0,0,0,0,0,0,0,0,0,0,0
-0.59342,1.2562319,9.79143,-5.5125003,-35.5875,-13.781251,-0.022907428,-0.29458955,-0.22036947,53,53,210
-0.28953153,1.5888343,10.001999,-3.9562502,-33.28125,-17.643751,0.02046397,-0.33551747,-0.12140937,53,53,210
0.20338993,1.8089739,9.741181,-5.25,-34.537502,-15.056251,-0.30390522,-1.4466805,-0.28817546,53,53,207
1.7228323,1.4739788,10.076176,-6.9,-33.35625,-18.4125,-0.34666577,-1.5328125,-0.6638573,53,53,207
3.591627,1.7395821,8.997013,-8.681251,-32.381252,-18.675001,-0.09498947,-2.8119633,0.09422589,52,52,206
6.259624,2.1272194,7.678568,-13.556251,-30.525002,-14.85,0.23243405,-3.6922195,0.21334453,52,52,206
9.829716,1.4189439,5.3072805,-17.41875,-27.750002,-13.781251,0.83963364,-3.5462227,0.22128576,52,52,206
10.920842,0.083748795,2.5507488,-22.931252,-30.281252,-3.80625,0.558025,-1.877951,0.11866048,43,43,206
10.013963,-0.93559366,2.2947168,-24.2625,-30.768751,1.2750001,0.52992517,-0.5193878,0.091782436,43,43,206
9.887143,-0.26799613,-0.79920274,-25.66875,-31.10625,5.7937503,0.37171122,-0.82482016,-0.2423606,35,35,206
7.7814593,1.7874385,0.80877405,-24.393751,-31.706251,6.675,-0.15913028,2.7279694,0.10338886,35,35,206
5.8887367,1.5194423,4.6707897,-30.300001,-37.03125,3.0937502,-0.011300999,5.0168796,0.6873756,34,34,206
2.012364,0.7728817,10.466207,-22.0125,-30.843752,-13.218751,-0.61239195,5.4426527,0.28787002,34,34,206
-1.2179468,0.32303107,13.576876,-10.181251,-29.587502,-21.112501,0.24098615,3.6216645,-0.060322896,34,34,206
-2.9503503,-0.1268196,11.437693,-2.2125,-33.45,-21.112501,0.23487751,3.0841036,-0.22769985,36,36,206
-3.9625144,-1.4644074,8.662018,5.2125,-34.725002,-18.618752,-0.19211698,2.029751,-0.719446,36,36,206
-5.790631,-1.0408778,7.554141,10.06875,-34.800003,-15.843751,-0.19394957,1.1140647,-0.6571378,51,51,206
-5.7547383,0.11964113,9.367901,12.918751,-33.91875,-14.118751,1.7259984,-2.8516695,-0.22098033,51,51,206
-3.737589,1.7922242,9.753145,9.09375,-35.737503,-13.70625,3.3301294,-3.6183047,0.13026692,64,64,206
-1.3830515,4.749753,7.4823565,3.8812501,-40.875,-4.96875,2.8787003,-1.2450951,0.08567379,64,64,206
-0.11485548,6.9678993,8.465807,0.7875,-43.575,6.6937504,2.1768167,-0.8883501,0.08811724,64,64,206
0.4235296,9.968499,6.812366,1.9125,-41.04375,13.462501,2.0967934,-0.319635,0.21517712,50,50,206
0.19860429,8.834301,4.395615,0.50625,-38.60625,22.125,2.5421138,-0.30863944,0.21639885,50,50,206
0.7465607,7.6139617,0.1698904,-0.46875003,-32.71875,30.69375,1.7815871,0.41951138,-0.21059564,38,38,206
0.6029913,8.059027,-1.3184453,-0.75,-27.562502,33.956253,0.39370236,0.5551234,-0.434783,38,38,206
-0.40677986,9.238688,-1.8640088,-1.1625,-26.456251,35.34375,-0.9795217,0.4072941,-0.38163778,31,31,206
-1.4979069,11.052447,0.33738798,-1.725,-30.187502,32.34375,-2.9752169,0.021838415,-0.23075417,31,31,206
-1.2849457,9.102298,6.216553,-0.975,-38.475002,23.90625,-3.8316493,-0.36911505,-0.3675879,31,31,206
0.37088752,3.0053852,8.908479,0.8625,-42.3375,9.95625,-3.4217591,0.21548255,-0.06704241,31,31,206
0.2416751,1.7515461,9.846465,3.16875,-38.9625,-3.16875,-1.9092579,0.57589275,-0.35475972,36,36,206
0.44506502,1.995614,8.879765,5.8125,-35.0625,-12.075001,-0.5207622,-0.14798199,-0.16233732,36,36,206
0.94277215,2.012364,8.867801,4.70625,-34.237503,-13.593751,-0.86223567,-0.29458955,-0.16050471,36,36,206
0.7848458,1.079163,10.19821,3.8437502,-32.850002,-17.325,-0.8384119,0.06887501,-0.10613775,48,48,206
0.91405827,-0.3493521,12.160325,6.1125,-30.375002,-20.493752,-0.21410811,-0.011148282,-0.01084285,48,48,206
-0.57188463,-2.359323,12.562319,5.5875,-29.1375,-22.3875,-0.7315106,0.5111411,0.17974696,64,64,206
-0.8350951,-1.835295,9.68136,6.39375,-27.862501,-23.868752,0.21838416,-0.74540776,0.16875139,64,64,206
-0.6843473,-1.119841,8.066205,3,-30.768751,-23.15625,-0.35705048,0.058490302,0.22311836,72,72,206
-0.7848458,-0.7920243,7.9513497,0.84375006,-30.35625,-24.468752,-0.8286381,0.25518876,0.49189886,72,72,206
-0.23928227,-1.6199409,8.681161,0.3,-28.0125,-27.16875,-1.1554507,0.17699806,0.84009176,72,72,206
-1.4955142,-4.8287163,8.7984085,-0.35625002,-24.2625,-30.54375,-2.6874995,1.0126611,1.5034909,77,77,206
-2.5148566,-9.97807,9.140582,1.2,-13.500001,-36.862503,-1.8603886,0.59360784,0.3263545,77,77,206
-2.4311078,-10.286744,6.5443697,2.7,-6.1687503,-39.16875,-0.8347467,0.48731738,-0.13729186,80,80,206
-1.1485549,-7.688139,6.9320073,3.1875002,-5.0062504,-38.98125,1.3613122,-0.5761982,-0.62781626,80,80,206
-1.052842,-4.725825,6.7094746,1.4625001,-11.606251,-36.7125,3.4437501,-1.4185808,-0.7823651,100,100,206
-0.02871387,-1.7324036,6.73101,-1.9875001,-24.6,-29.6625,3.2281148,-0.4375319,0.12965605,100,100,206
0.62452674,1.0911272,8.236095,-6.3375,-35.287502,-19.987501,1.7876958,-1.4900519,0.7515164,97,97,206
2.1104696,1.6414764,9.958928,-10.368751,-38.362503,-13.406251,0.846964,-1.29091,0.41737336,97,97,206
3.7878382,3.1154552,12.593426,-11.868751,-37.40625,-8.793751,-0.72723454,0.9283618,-0.1989892,97,97,206
0.050249275,0.6221339,10.619347,-9.8625,-34.66875,-9.712501,0.82741636,1.0181589,0.5694787,70,70,206
-2.7493532,0.485743,17.00579,-10.51875,-35.4375,-9.900001,0.029016078,2.6852088,0.8975131,70,70,206
-1.6366907,3.8404803,8.874979,-12.31875,-37.48125,-11.625,0.620944,0.59421873,0.57741994,68,68,206
-0.8542377,3.1106694,8.79123,-14.45625,-38.662502,-9.7875,-0.024129158,-0.38438666,0.74174255,68,68,206
-0.45942193,0.7968099,8.109276,-18.1875,-37.55625,-10.96875,-0.9098831,0.07437278,-0.2423606,68,68,206
-2.4789643,1.7874385,11.97847,-15.69375,-36.73125,-13.725,-0.33444846,0.6149881,-2.0492985,69,69,206
-2.498107,0.36610186,12.0023985,-7.2375,-36.46875,-15.618751,-0.24404047,0.8251256,-1.7053818,69,69,206
-2.457429,-2.9240294,10.877771,0.16875,-35.71875,-16.21875,0.18173227,0.21059564,-3.3156214,72,72,206
-0.32542387,-1.1964114,10.006784,13.012501,-30.937502,-14.981251,-0.009468404,-1.0551162,-4.5477357,72,72,206
0.30867413,-0.8853444,9.734002,22.875,-22.10625,-14.043751,0.2764163,0.114079,-2.5343254,79,79,206
-2.3353949,-1.524228,10.442278,27.562502,-15.431251,-15.618751,0.6869174,1.2142465,-2.6907067,79,79,206
-0.89730847,-0.38763726,10.887343,30.6,-6.39375,-15.39375,0.1621846,1.0749693,-4.700452,82,82,206
-0.86141616,-2.6464617,11.033305,31.48125,9.543751,-14.606251,0.7852667,0.59727305,-4.1671667,82,82,206
-0.7968099,-0.88295156,10.224531,25.612501,20.868752,-15.806251,-0.12553272,0.37308568,-2.9124506,82,82,206
-0.2009971,-0.014356935,10.628919,19.725,28.425001,-16.81875,1.4840959,0.6033817,-3.9912376,57,57,206
-0.72023964,1.6319051,9.798609,7.6687503,32.86875,-19.6875,0.69058263,0.79152805,-4.275901,51,51,206
-0.701097,0.11006984,8.556734,-4.875,32.25,-22.63125,0.548862,-1.6409355,-3.5220935,51,51,206
1.2634103,0.5814559,8.851051,-17.081251,26.775002,-22.78125,-0.059559315,-1.5474732,-3.4952157,51,51,206
0.8757731,0.9020941,9.250652,-27.487501,18.375,-21.69375,0.10415245,-0.59452415,-2.7963862,63,63,206
1.1581261,1.9549361,12.284752,-32.625,9.356251,-19.95,-0.3601048,0.3260491,-2.36817,63,63,206
0.11964113,0.6221339,12.315858,-36.768753,-1.1812501,-17.456251,0.82069683,-0.19746204,-3.69619,88,88,206
-1.1078769,-0.07178468,9.616755,-36.5625,-14.2875,-15.262501,-0.17806709,-0.70997757,-3.8977754,88,88,206
-0.4977071,-0.4211368,8.097312,-30.525002,-24.862501,-13.781251,-0.10231985,-0.46440995,-3.7493353,89,89,206
0.21774685,0.8997013,8.898908,-21.28125,-33.05625,-13.200001,-0.4951059,-0.21395539,-1.162323,89,89,206
1.2969099,0.37328035,9.111869,-18.206251,-34.518753,-14.231251,0.22999059,0.63148147,-0.001069013,89,89,206
-0.10289137,1.2586247,10.064212,-16.78125,-35.23125,-13.406251,0.28252497,0.089033544,-0.6553052,89,89,206
-0.9954142,2.4023938,10.624132,-13.89375,-36.375,-11.887501,0.3149008,0.7353285,-0.46043932,89,89,206
-1.2897314,1.9716859,10.432707,-11.962501,-38.550003,-10.59375,-1.4272856,0.49342602,-0.045051277,90,90,206
-0.3397808,0.68195444,9.078369,-11.1,-36.54375,-16.44375,0.05650499,0.31566438,0.2988656,90,90,206
0.1268196,0.7537391,6.948757,-10.950001,-35.7,-16.5375,0.5861248,-1.8229733,-0.21670428,90,90,206
0.36610186,1.1126626,6.302695,-11.775001,-36.956253,-14.325001,0.52992517,-0.22250749,-0.69073534,90,90,206
-0.19621146,1.5002998,7.6977105,-9.337501,-37.95,-11.90625,-0.24953826,-0.2310596,-1.049313,93,93,206
-0.021535404,1.6390835,10.054641,-5.7375,-37.3875,-13.125001,-0.675311,-1.0025818,-0.3675879,93,93,206
0.06699903,0.28953153,10.669596,-5.025,-35.775,-15.1125,-0.02046397,-0.116217025,-1.0566434,93,93,206
0.44985065,-1.2586247,14.206188,0.16875,-33.05625,-17.475,-1.7974696,-0.59391326,-1.1708751,95,95,206
0.39960137,-0.43788654,13.395021,3.15,-27.618752,-23.1,-0.1432478,0.2716821,-1.4182754,95,95,206
1.3998013,0.031106694,15.524633,6.0375004,-24.562502,-26.1375,-0.2073886,0.09453133,0.7820596,96,96,206
2.0578275,-0.30149564,12.110075,5.11875,-25.031252,-25.893751,0.883005,0.3101666,0.116217025,96,96,206
1.4261223,0.10289137,9.635897,9.09375,-24.69375,-23.90625,0.2904662,0.16416991,-0.45494154,104,104,206
0.91884387,-0.8781659,8.91805,11.587501,-25.875002,-22.40625,0.33994624,-0.4735729,-0.37858346,104,104,206
2.105684,-0.19621146,7.4679995,12.50625,-26.38125,-23.925001,0.22632541,-0.653778,-0.44394597,107,107,206
1.8496519,0.15314065,7.793423,13.51875,-27.281252,-21.91875,0.36743516,0.6656899,-1.2417353,107,107,206
1.038485,1.134198,7.570891,18.300001,-26.156252,-20.60625,0.6667589,0.479987,-1.0792453,107,107,206
1.1676974,-0.009571291,8.554341,21.75,-25.3875,-18.1875,-0.07788526,-0.504727,-0.69623315,106,106,206
1.5290136,-0.6987042,9.35833,23.775002,-22.893751,-18.69375,0.37843072,0.43905905,-1.3797908,106,106,206
0.5479564,0.27996024,9.123833,27.35625,-19.743752,-17.268751,-0.08949169,-0.342237,-1.8471024,107,107,206
0.009571291,-0.38524446,10.116854,31.63125,-12.168751,-20.306252,-0.4150826,-0.19379686,-2.5691445,107,107,206
1.134198,0.24646074,12.897314,33.956253,-3.7875001,-21.69375,0.8365793,-1.29091,-2.765843,114,114,206
0.16749759,1.308874,9.480363,31.9125,2.79375,-23.00625,-0.109039366,-0.016646065,-2.4463608,114,114,206
0.15792629,0.011964113,8.63809,31.968752,11.94375,-25.218752,0.057726722,-0.7136428,-3.1622941,114,114,206
0.5910272,1.3232309,9.131011,26.19375,22.181252,-25.7625,-0.535423,0.3413207,-3.3608253,119,119,206
-0.56470615,1.268196,10.676775,20.00625,30.468752,-24.7875,-0.4242456,0.45249808,-1.7554727,119,119,206
0.22013968,-0.39960137,7.5828547,13.5375,35.100002,-21.993752,-0.7015782,-0.21151192,-1.8000658,120,120,206
-0.22013968,1.416551,9.734002,9.431251,36.24375,-22.462502,0.43768463,0.31932956,-1.1012365,120,120,206
-1.2323036,-0.43788654,10.9017,4.78125,34.7625,-23.4375,-0.24342962,0.45860672,-0.68218327,107,107,206
-1.8017955,-1.1389836,11.863615,2.5687501,34.3875,-21.91875,1.0357212,-2.0111196,-0.9466877,107,107,206
0.019142581,0.0526421,9.499506,-5.25,31.425001,-22.650002,0.57940525,-2.5889976,-0.7499892,107,107,206
2.213361,0.35174492,9.540184,-12.58125,30.7875,-22.931252,-0.1188132,-2.3006694,-0.674242,96,96,206
3.9314077,1.0097711,8.573483,-15.450001,32.4,-20.94375,0.1432478,-1.4753911,-0.13668099,96,96,206
5.65424,1.605584,6.9726853,-17.737501,33.600002,-18.46875,0.26480988,-1.7050763,0.17608178,96,96,206
7.300502,1.5840486,6.259624,-19.837502,33.693752,-14.418751,0.30757043,-1.9335397,0.20479241,96,96,206
8.817552,1.9980069,4.5894337,-21.65625,33.28125,-10.2375,0.31184646,-1.3910918,0.027641632,93,93,206
10.193424,1.550549,2.928815,-23.19375,32.5875,-7.7812505,0.3753764,-0.8516982,0.15775582,93,93,206
9.516255,0.4977071,2.4143581,-21.6375,33.61875,-9.1875,0.25503606,1.0835214,0.025198173,87,87,206
8.17149,0.57188463,3.2422748,-20.737501,32.53125,-13.2375,-0.45051277,2.9814782,0.057574004,87,87,206
4.965107,-0.45224348,6.7022963,-16.10625,33.375,-17.268751,-0.5213731,5.8763666,0.54565495,87,87,206
0.05742774,-0.31106696,9.829716,-1.25625,37.125,-23.400002,-0.012522728,4.278344,0.66049755,83,83,206
-2.2995026,0.1698904,8.439486,8.981251,36.7125,-21.6375,0.5042689,2.7866125,0.5658135,83,83,206
-4.048656,0.634098,6.7836523,15.150001,32.175003,-18.88125,0.09071342,2.376722,0.95004743,79,79,206
-8.62134,1.5768701,9.590433,22.59375,31.125002,-15.168751,-0.13286309,0.38530296,0.54260063,79,79,206
-8.977871,-0.8111669,9.317652,24.093752,30.4125,-12.76875,-0.5555815,1.6168064,-0.80924314,78,78,206
-7.470392,1.6295122,4.9770713,23.25,32.8875,-6.8625,-0.15118903,2.5770857,-0.2008218,78,78,206
-7.745567,0.8327023,3.790231,22.6875,33.075,-1.2,0.33750278,-1.3403901,0.08078687,78,78,206
-6.6592255,0.011964113,4.1754756,22.3875,32.9625,-6,-0.75899947,-2.6665776,-1.1684316,72,72,206
-5.6949177,-1.7204394,6.903293,16.462502,36.1875,-8.493751,-1.9697335,-1.9194899,-1.5856522,72,72,206
-6.8721867,-5.139783,8.30788,8.75625,39.581253,-3.35625,-2.5036292,-0.5994111,-0.8477276,70,70,206
-5.505885,-8.800801,6.719046,4.6312504,38.193752,6.9750004,-3.0216427,0.6528617,-1.234405,70,70,206
-3.1154552,-8.123632,5.261817,1.44375,34.36875,16.462502,-1.2165372,-0.76067936,-0.1989892,70,70,206
-2.4335005,-8.85823,7.393822,2.60625,32.8125,19.181252,1.212872,-1.1113157,-0.14217877,70,70,206
-0.72741807,-6.1710896,7.0612197,4.0875,36.35625,12.637501,2.7595816,0.059712034,0.24633121,62,62,206
-1.1533405,-4.6396832,8.202596,5.7375,38.23125,-2.2687502,5.988002,-0.89079356,0.6531672,62,62,206
-1.3064811,-0.37567315,11.018949,6.5625005,33.24375,-19.48125,4.3655453,-0.09483676,-0.37064222,62,62,206
-1.5864414,5.54417,10.238888,4.4437504,18.825,-33.35625,3.7772825,-0.61040664,-1.1220059,62,62,206
-2.6368906,7.1545396,6.991828,1.10625,6.4687505,-38.11875,4.0448413,-0.90606517,-0.72005683,68,68,206
-2.589034,7.513463,1.079163,-2.025,-10.950001,-36.112503,3.602575,0.31749696,0.9133956,68,68,206
-1.1653047,8.226524,-1.6773686,-1.8375001,-22.29375,-30.35625,0.49938196,-0.18646647,0.66171926,68,68,206
-0.34217364,8.415557,-0.0526421,-5.2875004,-24.768751,-29.00625,0.1065959,-0.70509064,-0.19471315,33,33,206
-1.820938,10.04507,-1.18684,-5.7937503,-23.475,-30.6,-1.3888011,-0.35689774,0.09850194,33,33,206
-0.81595254,10.250853,2.1966112,-5.08125,-17.00625,-33.73125,-2.5696027,0.23319763,0.13271037,31,31,206
-1.4811572,9.812965,4.558327,-3.3187501,-7.0312505,-37.66875,-2.5311182,0.3065014,0.16875139,32,32,206
-0.0741775,6.5515485,7.6833534,-2.8312502,4.8187504,-38.737503,-3.0448556,0.72616553,0.251829,32,32,206
-0.48095736,4.2424746,8.379665,1.29375,17.04375,-35.86875,-1.9428555,1.2594504,0.53404856,32,32,206
1.0815558,1.9501505,6.4606214,6.8437505,23.25,-30.806252,-1.863443,-0.5419898,2.3257148,39,39,206
2.1104696,1.1772687,6.649654,11.587501,25.893751,-27.16875,-0.40042186,-0.11133011,1.9158247,39,39,206
6.8482585,1.4524434,12.421143,14.418751,25.706251,-27.018751,1.2660172,0.18371758,-0.3187187,57,57,206
0.19860429,0.19860429,14.624932,16.5375,27.54375,-26.85,-1.3099995,3.9576402,-1.4408773,57,57,206
-2.6009982,-0.91166544,10.899307,19.06875,30.075,-22.087502,-0.7516691,-0.015424335,-2.6155703,70,70,206
-1.9932213,-0.5694918,9.200403,10.556251,33.24375,-19.650002,-0.36743516,0.5209149,-3.8525715,70,70,206
-1.6630118,-0.8446664,8.133204,-4.78125,34.85625,-18.975,1.2024873,0.91797704,-4.5208573,69,69,206
-1.1365907,-2.8522446,7.836494,-18.487501,28.181252,-21.45,0.040622506,0.48548478,-5.512902,69,69,206
-0.148355,-3.2183464,8.865408,-31.143751,12.243751,-21.6375,0.6545416,0.79458237,-4.754819,69,69,206
-0.78723866,-3.2063823,10.992627,-31.425001,-6.20625,-25.050001,0.18723005,1.581987,-4.396241,65,65,206
-1.4141582,-2.349752,13.552947,-23.71875,-19.368752,-27.393751,1.9477423,0.4628828,-2.2679882,65,65,206
-1.5481563,-1.1533405,8.973084,-16.087502,-29.962502,-22.237501,1.9184208,0.04016436,-4.6845694,45,45,206
-3.0245278,-0.91166544,9.097511,-3.3000002,-35.175003,-16.81875,1.0106758,0.1574504,-5.8079495,45,45,206
-2.0721843,-0.8207382,8.322237,13.725,-32.381252,-14.775001,0.3912589,-0.005039635,-1.8923063,33,33,206
-0.65084773,0.2105684,7.4536424,19.725,-27.018751,-15.056251,-0.03695732,-0.50961393,-3.2960737,33,33,206
-2.009971,-0.91405827,11.351551,25.48125,-17.75625,-15.4875,0.41813695,0.003512472,-3.1647377,38,38,206
-0.6795616,0.552742,11.97847,28.143751,-10.63125,-17.4375,0.5403099,0.51175195,-0.8116866,38,38,206
-0.8470592,1.4189439,10.547563,29.681252,-7.36875,-16.5375,0.422413,0.02611447,-1.7921245,55,55,206
-0.5072784,1.8400806,9.406186,30.54375,-1.35,-16.85625,0.44073895,-0.34284785,-2.3510659,55,55,206
0.12203395,1.0695918,9.717253,29.5125,5.0437503,-17.325,0.4816669,-0.961043,-1.5263984,56,56,206
1.0695918,2.0673988,8.729017,27.075,9.450001,-19.987501,0.21655156,-0.18890993,-2.6057963,56,56,206
0.076570325,1.2777673,8.537591,24.656252,15.31875,-21.056252,-0.54702944,0.26801693,-2.8263185,56,56,206
-2.751746,-0.22731815,11.602797,19.893751,22.0125,-23.0625,0.38453937,-0.123547405,-1.2692243,53,53,206
-1.253839,1.8664017,10.79163,17.362501,21.993752,-25.10625,0.9899064,0.4384482,1.5028801,53,53,206
1.6558332,1.9190438,5.9820566,20.75625,17.85,-24.431252,-0.6197223,0.83917546,-1.0261002,52,52,206
0.55752766,0.58624154,6.192625,23.306252,22.462502,-25.48125,1.3472623,-1.3080142,-1.319926,52,52,206
-0.89730847,2.0889342,6.4821568,16.3875,20.41875,-29.38125,-0.5085449,-1.9060508,-0.98883736,47,47,206
-2.120041,1.2442678,12.387643,8.418751,22.331251,-30.7875,-1.3008366,-0.649502,-1.4549272,47,47,206
-2.6943183,-2.3114667,17.525034,4.4437504,25.875002,-28.3875,-2.3344197,-0.5871938,-0.42684177,44,44,206
-1.052842,0.37328035,13.323236,1.40625,31.3875,-24.31875,-0.06444623,0.39568767,-1.8587089,44,44,206
-0.76331043,1.1509477,6.6592255,-2.4375,31.181252,-24.900002,0.26847506,-0.42409286,0.04291325,44,44,206
0.39720857,-0.4426722,10.112068,-3.3000002,31.031252,-25.125002,-1.0430516,-0.22372922,0.1791361,44,44,206
0.46181476,-1.026521,12.421143,-3.5062501,32.662502,-21.956251,-0.011911863,-0.119271345,0.113162704,44,44,206
0.7537391,0.55034924,11.284552,-2.2125,31.593752,-21.6,0.16829325,0.13423753,0.56092656,45,45,206
-0.55034924,-1.9334008,16.783258,-0.99375004,30.675001,-22.087502,0.007024945,0.4329504,0.20906848,45,45,206
-1.8137596,-1.2083755,15.780665,1.4250001,30.54375,-20.71875,-0.2904662,0.28206682,0.88773924,45,45,206
-0.32063824,-1.7180467,10.870593,5.0062504,31.425001,-20.2875,0.60994846,-0.12660173,0.7649554,45,45,206
-0.31585258,-1.1581261,6.853044,5.3250003,29.118752,-21.16875,0.9355394,0.5874992,0.41370818,45,45,206
-0.2656033,-0.6771688,5.3359947,9.58125,27.712502,-24.54375,0.5366447,0.040775225,1.2554798,45,45,206
-0.62452674,-0.3924229,5.35753,12.31875,24.45,-26.04375,0.49205157,-0.30436337,1.2982404,45,45,206
0.33738798,1.0169497,6.498906,13.35,21.69375,-26.156252,-0.24770567,-0.79000086,0.4998401,45,45,206
0.6053841,-0.05742774,11.016556,13.89375,21.7875,-26.456251,-0.36621344,0.39507678,-0.46532625,45,45,206
0.16749759,0.36370903,7.3698936,14.718751,24.112501,-24.45,-1.4761547,-0.59452415,-0.7487675,43,43,206
0.7585248,-1.0552348,10.992627,10.725,29.175001,-22.275002,-0.70585424,-0.11438443,-0.77198035,43,43,206
1.7060826,-0.51206404,9.102298,8.325001,31.143751,-21.4125,0.49449503,-0.5884155,-1.3193152,43,43,206
-0.68195444,3.0436704,10.265209,4.89375,31.368752,-22.85625,0.89094627,1.130558,-0.9082032,43,43,206
0.38524446,0.6723832,11.215159,2.5125,27.487501,-25.7625,0.99051726,-0.41248643,-0.4677697,43,43,206
0.3804588,1.2418749,11.940185,1.5937501,24.525002,-28.143751,-0.17562363,0.12018765,-0.23014331,45,45,206
