lsm6dso_accelerometer.x,lsm6dso_accelerometer.y,lsm6dso_accelerometer.z,ak09918_magnetometer.x,ak09918_magnetometer.y,ak09918_magnetometer.z,lsm6dso_gyroscope.x,lsm6dso_gyroscope.y,lsm6dso_gyroscope.z,tmd4912_light_cct.x,tmd4912_light_cct.y,tmd4912_light_cct.z
-2.213361,2.7397819,9.812965,-20.625,-3.2250001,-31.087502,-0.4761691,-0.20234896,-0.26885685,0,0,0
-2.498107,2.8833513,9.2793665,-24.112501,-5.68125,-28.181252,0.1291979,-0.6849321,0.12698352,625,625,210
-1.3471591,1.8592232,9.537791,-24.6375,-4.1625004,-27.393751,-0.11453715,-0.29092434,0.15935935,625,625,210
-0.64845496,2.2157538,9.410972,-25.0125,-3.3375,-27.300001,-0.37048948,-0.081397735,0.053679742,625,625,210
-0.16510476,2.091327,10.195817,-24.862501,-2.04375,-27.54375,-0.23426664,-0.52671814,0.029856017,597,597,207
0.3493521,1.847259,10.13839,-25.181252,0.58125,-27.768751,-0.70951945,-0.3092503,-0.44906196,597,597,207
0.8781659,0.8997013,9.915857,-27.54375,0.63750005,-25.406252,0.35521787,-0.6892082,-0.24808747,583,583,206
0.634098,1.1389836,9.97807,-27.900002,0.1875,-26.081251,-0.21288638,-0.5542071,0.027412556,583,583,206
1.5960127,1.3615161,9.41815,-28.7625,0.52500004,-24.6375,-0.010079269,-0.8804089,-0.25175264,558,558,206
2.2444677,1.39023,9.688539,-30.31875,0.09375,-22.63125,0.097432934,-1.0056361,-0.0410043,558,558,206
3.3834512,1.4213367,9.949356,-30.581251,2.71875,-19.25625,0.06994402,-2.0074544,0.12148573,558,558,206
5.209175,1.1509477,7.381858,-33.43125,3.16875,-10.3125,0.12797616,-3.179704,0.30352345,531,531,206
7.503892,1.2370893,4.6325045,-34.631252,4.51875,0.075,0.31428993,-3.4661994,0.59307337,524,524,206
9.755538,0.60777694,2.0841484,-32.268753,6.1687503,12.337501,0.28924447,-2.3855796,0.41408995,524,524,206
10.502099,0.74895346,0.6125626,-26.8875,8.587501,19.181252,0.18051054,-0.7185297,0.002977966,524,524,206
10.059426,0.7800602,-0.33020952,-26.681252,8.512501,22.237501,-0.024129158,0.43905905,-0.09537126,522,522,206
9.533006,0.7728817,1.1006985,-27.7875,7.8,20.85,-0.3197877,1.419497,0.1117119,522,522,206
9.15494,0.38763726,3.3619158,-30.54375,7.2187505,15.13125,-0.3839285,2.4970624,0.032299474,513,513,206
7.1952176,0.15074782,6.3050876,-33.28125,7.275,6.3375,-0.47739083,2.8305948,0.10377065,513,513,206
5.8672013,0.08853444,7.6259255,-33.99375,7.2562504,-4.1625004,-0.160352,2.277762,-0.23281583,514,514,206
4.321438,0.33499518,9.064013,-32.4375,6.76875,-11.75625,0.002748892,1.5923718,-0.2334267,514,514,206
2.9312077,0.46181476,9.15494,-30.806252,5.3625,-17.212502,0.15913028,2.0804527,-0.2248746,580,580,206
0.45702913,0.6125626,9.2075815,-26.5125,5.0437503,-22.44375,0.2196059,3.1500769,-0.12652537,580,580,206
-3.1680973,1.1174482,9.801002,-18.45,3.91875,-30.50625,0.20494513,3.2081091,-0.047112945,580,580,206
-6.1208405,0.50009996,8.599805,-10.96875,0.50625,-35.175003,-0.37598726,3.4768896,0.16913319,583,583,206
-8.147561,0.60059845,6.0346985,2.2687502,2.8125,-36.225002,-0.46822786,1.8196135,-0.054443322,583,583,206
-8.977871,0.7082755,5.5106707,8.625,5.08125,-34.893753,0.033902995,-0.113162704,-0.015347977,646,646,206
-8.496913,0.7178468,6.0107703,8.212501,4.6687503,-33.9375,0.12614357,-1.3061817,0.013362667,646,646,206
-6.5635123,0.70588267,7.0779696,2.5125,3.61875,-35.568752,0.6875283,-3.387398,-0.049556404,931,931,206
-2.536392,0.31106696,8.063812,-11.493751,2.53125,-35.025,-1.1175771,-2.9799511,-0.05383246,931,931,206
-0.9403793,-1.430908,9.200403,-20.587502,6.4687505,-30.468752,-2.70888,-0.559094,-0.18577924,924,924,206
-2.0147567,-4.520042,8.374879,-21.900002,12.88125,-27.6375,-2.9550583,1.9094106,0.28580835,924,924,206
-3.4695928,-6.4462643,7.6139617,-17.025002,21.375,-25.612501,-1.6911792,0.98211783,0.28764096,924,924,206
-3.438486,-7.0875406,6.908079,-13.968751,25.9125,-23.493752,-0.18417573,-0.4027126,-0.083764836,924,924,206
-3.3810585,-7.0468626,8.130812,-15.4125,25.85625,-22.706251,2.3765695,-2.2072072,-0.86445004,1365,1365,206
-0.81834537,-4.479364,9.209974,-21.9375,19.10625,-23.962502,2.9306238,-1.2884666,-0.86506087,1365,1365,206
0.5766702,-1.3351951,9.700503,-26.1,9.618751,-25.368752,2.9006915,-0.78022707,-0.5327504,1365,1365,206
0.26081768,1.2490535,10.293923,-27.54375,-0.99375004,-25.425001,2.79379,0.1036943,-0.4539489,1517,1517,206
1.6941184,4.8789654,8.472985,-28.837502,-9.58125,-24.075,2.4431536,-0.16508621,-0.41363183,624,624,206
0.36131623,6.235696,7.60439,-28.650002,-16.59375,-20.643751,2.1584907,-0.33735007,-0.16928591,624,624,206
-0.004785645,7.664211,5.9964137,-29.250002,-21.862501,-15.806251,2.7663012,-0.14981459,-0.032452192,484,484,206
-0.23928227,8.989835,2.8163524,-29.325,-25.7625,-9.65625,2.5445573,-0.14309508,0.015806125,484,484,206
0.37567315,9.827323,0.15314065,-30.018751,-29.062502,-2.0625,0.6850849,-0.14492767,-0.09353867,483,483,206
0.5694918,10.332209,1.4452649,-30.0375,-28.7625,-1.8000001,-1.0314451,0.022449281,0.015195262,483,483,206
-1.2777673,9.064013,1.9669002,-29.56875,-29.062502,-4.3500004,-2.85732,0.31932956,0.60162544,487,487,206
2.3018954,4.570291,6.0490556,-30.937502,-20.925001,-13.687501,-4.3685994,0.10919208,0.96753347,487,487,206
0.2656033,2.8570302,10.009177,-29.456251,-8.231251,-21.300001,-2.5671592,1.0774127,0.450131,456,456,206
2.7445676,2.0171494,11.095519,-29.175001,-1.7625,-22.21875,0.31245732,-0.72280574,0.30841035,456,456,206
1.3782659,1.0959128,9.815358,-29.1375,2.8500001,-20.925001,0.23182319,-0.25121814,0.5350412,456,456,206
1.969293,2.321038,7.245467,-28.743752,5.68125,-20.34375,-0.9947933,2.327853,0.5936842,456,456,206
-0.8350951,0.10767702,11.533405,-23.4375,8.94375,-25.593752,-0.3167334,0.2075413,0.5173261,456,456,206
1.2107682,-0.6221339,10.100104,-23.56875,9.4875,-27.31875,0.085215636,0.54534954,0.26198465,521,521,206
-3.644269,-0.076570325,12.806387,-19.59375,9.75,-28.406252,-0.49388418,-0.6018545,-0.30001098,521,521,206
-0.3589234,-1.7706888,9.659825,-22.875,6.3562503,-28.81875,-0.011300999,0.42867437,-2.608469,647,647,206
-2.0865414,-0.79441714,10.315458,-23.71875,1.8937501,-29.175001,-0.2403753,0.56550807,-3.0470698,647,647,206
-1.6462619,0.062213387,9.930214,-22.44375,-3.35625,-30.54375,0.4725039,0.97173315,-2.6457317,647,647,206
-2.4837499,-1.713261,9.623933,-20.550001,-9.525001,-29.587502,0.11759147,-0.3434587,-1.8748204,751,751,206
-1.0313065,0.004785645,10.04507,-18.975,-13.9875,-29.456251,-0.035124727,0.4977021,-2.2957063,751,751,206
-0.9284152,-2.725425,10.382458,-14.55,-15.88125,-29.212502,-0.49632764,0.44211337,-2.1387138,789,789,206
-0.72741807,-2.821138,10.286744,-10.575001,-17.831251,-29.94375,0.67470014,-0.20051636,-3.1350343,789,789,206
-1.2035898,-1.7898313,10.576276,-4.7625003,-20.625,-28.593752,0.38515025,1.093906,-4.387307,733,733,206
-0.7537391,-1.174876,10.370493,6.80625,-21.35625,-25.48125,2.3979497,0.99250257,-4.3359947,733,733,206
-1.5672989,0.22492532,8.042277,18.46875,-19.143751,-19.875,0.93676114,0.27962336,-3.7880487,733,733,206
-3.347559,-1.847259,9.437292,24.750002,-13.368751,-17.493752,-0.75411254,-1.5523602,-0.20532693,418,418,206
-0.8853444,0.4019942,10.451849,23.94375,-10.556251,-19.800001,0.5042689,0.28451028,-1.1332306,380,380,206
-1.3256238,-0.40438703,9.473185,24.35625,-6.61875,-20.04375,-0.032070402,0.056046844,-3.190623,380,380,206
-1.2227324,-0.35413775,9.760324,25.575,2.7562501,-22.40625,0.17501275,-1.1540763,-3.7086365,417,417,206
-0.2727818,0.3589234,10.736595,21.375,11.64375,-24.431252,0.5073232,-1.0068579,-3.7477317,417,417,206
0.2847459,-0.02871387,10.102497,14.718751,17.643751,-27.525002,0.37781987,-0.33735007,-2.5522695,417,417,206
-0.53599226,0.83030945,10.109675,9.431251,20.587502,-27.54375,-0.097432934,0.24602579,-2.5467715,461,461,206
-1.1174482,0.74895346,10.080962,4.275,22.800001,-28.7625,0.13469568,-0.9213368,-2.2138503,461,461,206
-0.4354937,0.4881358,10.090533,-1.35,23.775002,-29.23125,-0.15485422,0.055435978,-2.0116541,603,603,206
-0.086141616,0.22253251,10.167104,-6.8437505,22.425001,-28.800001,-0.018631376,-0.25427246,-2.4197118,603,603,206
0.3804588,0.1794617,9.870394,-13.05,20.85,-28.406252,-0.31734425,-0.36850417,-2.4337616,663,663,206
0.63888365,0.3062813,10.009177,-20.15625,16.893751,-27.075,0.0650571,-0.022754714,-2.111836,663,663,206
0.5240282,1.2442678,9.420543,-22.78125,12.7875,-25.81875,0.36621344,0.26190826,-0.5095376,663,663,206
-0.124426775,0.031106694,10.135997,-21.956251,11.1,-26.94375,0.19272783,0.26618433,0.60406893,692,692,206
-0.7298109,1.0743774,10.34178,-20.75625,12.01875,-28.218752,0.8384119,0.17944153,0.1673006,692,692,206
-0.7537391,3.3236306,9.860822,-19.66875,10.387501,-29.79375,0.61422455,0.5905535,-0.35376707,689,689,206
0.57188463,1.5529419,9.54497,-18.6,8.2875,-31.5375,0.5910117,0.17333288,-0.7263946,689,689,206
-0.19381863,1.847259,8.671589,-18.075,5.55,-32.925003,0.3442223,-0.1913534,-1.3109921,687,687,206
-1.3710874,1.9190438,7.042077,-20.19375,1.40625,-31.875002,0.4951059,-0.53038335,-0.52603096,687,687,206
-1.4883357,2.210968,7.62114,-23.34375,-1.3125,-29.831251,-0.27030766,-0.22556181,-0.63293225,722,722,206
-1.7371893,2.5028925,8.939586,-24.900002,-1.4625001,-30.150002,-0.34727663,-0.15103632,-0.4899899,722,722,206
-0.7609176,1.9549361,10.090533,-26.1375,-1.1812501,-29.062502,-0.47189304,-0.504727,0.337121,722,722,206
-0.35653058,1.9573289,10.954342,-27.825,0.28125,-28.087502,-0.6172789,0.095142186,0.23938264,791,791,206
-0.27038896,1.0576276,10.693524,-28.725,2.60625,-27.35625,-0.286801,0.36942047,-0.52175486,791,791,206
-0.6029913,0.47856453,10.157532,-28.237501,2.30625,-29.156252,-0.67775446,-7.64E-04,-0.2945132,871,871,206
-0.43788654,-0.40917268,10.942378,-28.425001,3.80625,-28.237501,-0.5659662,-0.18524474,-0.37942338,871,871,206
0.016749758,-0.02632105,10.365707,-30.487501,3.6562502,-27.937502,-0.2556469,-0.19196425,0.19234605,982,982,206
0.77766734,-0.52163535,10.286744,-31.406252,5.2875004,-28.181252,0.032070402,-0.28725916,0.4012618,982,982,206
0.7106683,-0.72023964,10.585847,-31.425001,6.7500005,-27.7875,0.008857539,-0.113162704,0.18196134,1145,1145,206
0.4977071,-0.79441714,12.559926,-31.9125,7.0687504,-28.2,-0.02535089,-0.19807291,0.32307112,1145,1145,206
0.1363909,-0.8422736,13.119846,-33.15,6.7875004,-26.681252,0.15118903,0.084757484,0.45990482,1250,1250,206
0.27038896,-0.23688944,13.196417,-31.143751,9.0375,-27.675001,0.22143848,-0.006872229,0.7268527,1250,1250,206
-0.25603202,-0.37806597,13.718052,-29.38125,9.4875,-28.518751,0.28619015,0.34681848,0.32979062,1251,1251,206
0.009571291,-0.038285162,12.256038,-29.175001,8.475,-27.375002,0.7638864,-0.43997535,0.76778066,1251,1251,206
-0.19860429,0.1052842,9.209974,-27.075,9.95625,-26.868752,0.101708986,0.38347036,0.5637518,1251,1251,206
-0.011964113,0.5694918,8.377272,-24.956251,10.78125,-27.88125,0.118202336,-0.045967575,0.8123738,1076,1076,206
-0.18185452,1.0719845,7.987242,-22.44375,12.806251,-27.993752,0.033902995,0.37614,0.49716756,1076,1076,206
-0.6795616,0.6053841,8.829515,-19.6875,14.962501,-28.331251,-0.26664248,0.43050694,1.1391865,924,924,206
-0.5623133,0.5096712,8.817552,-16.48125,18.5625,-28.593752,-0.2489274,0.2509127,1.3413827,924,924,206
-0.7680961,0.12921242,8.118847,-12.712501,20.8125,-28.462502,0.094378605,-0.5878046,1.2607485,812,812,206
-0.8853444,0.40917268,7.4943204,-10.650001,22.237501,-28.2,-0.15729769,0.29122978,0.68959,812,812,206
-1.1916257,0.35413775,8.650054,-8.625,22.44375,-27.393751,0.18723005,0.5557342,0.7909935,672,672,206
-1.0336994,0.15553348,8.877372,-4.8187504,21.993752,-28.406252,0.11148282,-0.26832235,0.6425534,672,672,206
0.21535404,0.72502524,9.47797,-3.6562502,22.9125,-30.187502,0.21899502,-0.61162835,0.029245151,672,672,206
0.6939186,0.89491564,10.389636,-5.025,21.806252,-30.73125,0.72295845,0.41218102,-0.26213735,610,610,206
-0.17706887,1.4189439,9.987641,-5.7562504,19.237501,-30.768751,0.8854485,-0.27198756,-0.21754421,610,610,206
-0.26081768,2.5172493,10.078569,-6.3750005,16.44375,-33.1875,-0.046731155,0.049938194,-0.7001274,560,560,206
0.17706887,1.5314065,10.133604,-7.7250004,16.48125,-32.850002,-0.67103493,0.123852834,-0.20166174,560,560,206
0.7537391,0.6412765,10.853844,-8.34375,17.681252,-33.956253,0.17684536,-0.31902415,0.10071633,556,556,206
0.3493521,2.1463618,10.116854,-9.0375,17.34375,-32.4,-0.035124727,0.116522454,-0.11675153,556,556,206
0.20338993,1.8376877,8.006385,-8.418751,18.112501,-33.7125,0.08643737,0.5905535,0.039629854,556,556,206
